"Time (s)","Acceleration x (m/s^2)","Acceleration y (m/s^2)","Acceleration z (m/s^2)","Absolute acceleration (m/s^2)"
3.940375056E-3,-1.124910736E0,2.643802185E0,9.346114655E0,9.777779569E0
1.389937499E-2,-1.210682373E0,2.645748138E0,9.332792358E0,9.775824683E0
2.385837515E-2,-1.240620117E0,2.719993744E0,9.280700684E0,9.750328683E0
3.381637507E-2,-1.175056458E0,2.807711334E0,9.268575897E0,9.755536878E0
4.377537500E-2,-1.009351044E0,2.900368652E0,9.262738037E0,9.758547217E0
5.373437516E-2,-8.593629456E-1,2.934198303E0,9.278155975E0,9.768940713E0
6.369337509E-2,-7.565267944E-1,2.932851105E0,9.304201813E0,9.784790226E0
7.365237502E-2,-7.348219299E-1,2.883902893E0,9.349856873E0,9.812068217E0
8.361137495E-2,-8.520281982E-1,2.803370361E0,9.403445435E0,9.849346348E0
9.357037512E-2,-1.006207581E0,2.653382263E0,9.505682831E0,9.920226671E0
1.035283750E-1,-1.092128906E0,2.492915955E0,9.596543884E0,9.975020302E0
1.134873750E-1,-1.010847931E0,2.463277588E0,9.616153107E0,9.977973270E0
1.234463751E-1,-8.246351624E-1,2.532733154E0,9.651629333E0,1.001242774E1
1.334053751E-1,-6.691085815E-1,2.591560822E0,9.630223846E0,9.995254130E0
1.433643750E-1,-6.765930176E-1,2.641556854E0,9.588909760E0,9.969091789E0
1.533233752E-1,-7.315287781E-1,2.699935455E0,9.566306763E0,9.966895750E0
1.632823751E-1,-8.408015442E-1,2.701132965E0,9.504335632E0,9.916423869E0
1.732403750E-1,-9.511221313E-1,2.679428101E0,9.451944580E0,9.870320390E0
1.831993749E-1,-1.010398865E0,2.673739929E0,9.446406097E0,9.869365696E0
1.931583751E-1,-9.859996033E-1,2.721790009E0,9.423054657E0,9.857702325E0
2.031173750E-1,-9.225315857E-1,2.735112305E0,9.419162750E0,9.851524286E0
2.130763750E-1,-8.343649292E-1,2.767295380E0,9.403445435E0,9.837625455E0
2.230353751E-1,-7.794291687E-1,2.800077209E0,9.430389404E0,9.868139973E0
2.329943751E-1,-8.125103760E-1,2.765349426E0,9.461973724E0,9.891222236E0
2.429523750E-1,-8.659492493E-1,2.769391022E0,9.481882324E0,9.915920892E0
2.529113751E-1,-9.449848938E-1,2.765648804E0,9.484427032E0,9.924523459E0
2.628703751E-1,-1.019230499E0,2.747835846E0,9.477541351E0,9.920343881E0
2.728293750E-1,-1.048719177E0,2.712060242E0,9.477840729E0,9.913856341E0
2.827883752E-1,-1.049766998E0,2.696642303E0,9.469607849E0,9.901886855E0
2.927473751E-1,-9.862989807E-1,2.759960632E0,9.397757263E0,9.844186607E0
3.027063750E-1,-8.824150085E-1,2.825075226E0,9.384434967E0,9.840087699E0
3.126643749E-1,-7.400610352E-1,2.862347717E0,9.357341309E0,9.813284932E0
3.226233751E-1,-6.532415771E-1,2.840343475E0,9.369017029E0,9.811868105E0
3.325823750E-1,-6.707551575E-1,2.782114563E0,9.427395630E0,9.852200885E0
3.425413750E-1,-7.780819702E-1,2.711760864E0,9.505982208E0,9.915783190E0
3.525003751E-1,-9.598040771E-1,2.639461212E0,9.572593689E0,9.976097899E0
3.624593751E-1,-1.123713226E0,2.590812378E0,9.548942871E0,9.957778374E0
3.724183750E-1,-1.171314240E0,2.637814636E0,9.485624542E0,9.914994506E0
3.823763751E-1,-1.109193420E0,2.748135223E0,9.421408081E0,9.876511909E0
3.923353751E-1,-9.491761780E-1,2.859353943E0,9.330696716E0,9.805036542E0
4.022943750E-1,-8.026309204E-1,2.978206787E0,9.237290955E0,9.738658852E0
4.122533752E-1,-7.077282715E-1,3.081791382E0,9.145980835E0,9.677152622E0
4.222123751E-1,-6.785389709E-1,3.125051422E0,9.085805969E0,9.632145744E0
4.321713750E-1,-7.334747314E-1,3.122506714E0,9.061556396E0,9.612483430E0
4.421303750E-1,-8.048762512E-1,3.085832977E0,9.134454803E0,9.675146278E0
4.520883751E-1,-8.771759033E-1,3.011437683E0,9.293873291E0,9.808887564E0
4.620473750E-1,-9.951306152E-1,2.862946472E0,9.453591156E0,9.927594532E0
4.720063750E-1,-1.094224548E0,2.707270203E0,9.568552094E0,1.000419055E1
4.819653751E-1,-1.123713226E0,2.592159576E0,9.626481628E0,1.003250573E1
4.919243751E-1,-1.088237000E0,2.541265411E0,9.628128204E0,1.001714243E1
5.018833750E-1,-9.675878906E-1,2.544857941E0,9.586065674E0,9.965198612E0
5.118413751E-1,-8.562194824E-1,2.648891602E0,9.439370728E0,9.841313848E0
5.218003751E-1,-7.557783508E-1,2.812651062E0,9.283844147E0,9.729952161E0
5.317593750E-1,-6.960525513E-1,2.974913635E0,9.158255310E0,9.654441497E0
5.417183749E-1,-7.158114624E-1,3.096760254E0,9.069938965E0,9.610728534E0
5.516773751E-1,-7.943980408E-1,3.159479828E0,9.043294373E0,9.612208598E0
5.616363750E-1,-9.027726746E-1,3.184777222E0,9.111253052E0,9.693953612E0
5.715953750E-1,-9.958790588E-1,3.155288544E0,9.253607025E0,9.827352841E0
5.815533751E-1,-1.102906494E0,3.055745544E0,9.334139557E0,9.883326608E0
5.915123750E-1,-1.163081360E0,2.939287720E0,9.405541077E0,9.922518506E0
6.014713750E-1,-1.179846497E0,2.804418182E0,9.488618317E0,9.964470716E0
6.114303751E-1,-1.171613617E0,2.720442810E0,9.477092285E0,9.929187567E0
6.213893751E-1,-1.141675873E0,3.011437683E0,8.105195160E0,8.721603597E0
6.313483750E-1,-7.833210754E-1,3.161126404E0,8.436905365E0,9.043654360E0
6.413073752E-1,-1.097667389E0,2.863994293E0,9.001082153E0,9.509301601E0
6.512653751E-1,-1.277144165E0,2.521805878E0,9.641300812E0,1.004715300E1
6.612243750E-1,-1.069825287E0,2.736908569E0,9.590256958E0,1.003036506E1
6.711833749E-1,-9.343569946E-1,2.987337799E0,9.559271393E0,1.005867186E1
6.811423751E-1,-9.657916260E-1,2.926115112E0,9.670490112E0,1.014954591E1
6.911013750E-1,-1.098715210E0,2.736160126E0,9.726324005E0,1.016342098E1
7.010603750E-1,-1.184786224E0,2.609224091E0,9.723479919E0,1.013695371E1
7.110193751E-1,-1.217268677E0,2.528092804E0,9.740095367E0,1.013619524E1
7.209773751E-1,-1.193917236E0,2.458487549E0,9.690398712E0,1.006843715E1
7.309363750E-1,-1.078956299E0,2.535128174E0,9.581125946E0,9.969402988E0
7.408953751E-1,-9.047186279E-1,2.712060242E0,9.457033997E0,9.879740815E0
7.508543751E-1,-7.701484680E-1,2.930905151E0,9.323062592E0,9.803205076E0
7.608133750E-1,-6.460565186E-1,3.072360992E0,9.312883759E0,9.827847933E0
7.707723749E-1,-4.475692749E-1,3.031346283E0,9.214238892E0,9.710385002E0
7.807313751E-1,-3.867956543E-1,3.023562469E0,9.218579865E0,9.709467318E0
7.906893750E-1,-5.745053101E-1,2.947520599E0,9.347012787E0,9.817564977E0
8.006483749E-1,-6.397695923E-1,2.774330750E0,9.544302521E0,9.959916006E0
8.106073751E-1,-8.122109985E-1,2.581531677E0,9.751621399E0,1.012018342E1
8.205663750E-1,-8.964857483E-1,2.416425018E0,9.940827942E0,1.026951103E1
8.305253750E-1,-9.351054382E-1,2.297721863E0,1.002944366E1,1.033168370E1
8.404843751E-1,-9.253756714E-1,2.322719879E0,9.995464325E0,1.030342928E1
8.504433751E-1,-8.836125183E-1,2.416125641E0,9.865534515E0,1.019545023E1
8.604013750E-1,-7.830216980E-1,2.551294556E0,9.704170074E0,1.006444950E1
8.703603751E-1,-6.764433289E-1,2.767894135E0,9.563612366E0,9.979052811E0
8.803193751E-1,-5.917195129E-1,2.918630676E0,9.381590881E0,9.842905286E0
8.902783750E-1,-4.513114929E-1,3.002156982E0,9.189989319E0,9.678457123E0
9.002373749E-1,-3.507206726E-1,3.069217529E0,9.070837097E0,9.582441593E0
9.101963751E-1,-4.165837097E-1,3.107687531E0,9.065597992E0,9.592514307E0
9.201553750E-1,-6.110293579E-1,3.062481537E0,9.099128265E0,9.620097984E0
9.301133750E-1,-7.506889343E-1,2.961890717E0,9.159003754E0,9.655241077E0
9.400723751E-1,-8.704399109E-1,2.863844604E0,9.239236908E0,9.711991052E0
9.500313750E-1,-9.363029480E-1,2.795436859E0,9.330547028E0,9.785205071E0
9.599903750E-1,-8.824150085E-1,2.770887909E0,9.365574188E0,9.806653656E0
9.699493751E-1,-8.199948120E-1,2.811303864E0,9.349108429E0,9.797022472E0
9.799083751E-1,-7.095245361E-1,2.871927795E0,9.336085510E0,9.793563549E0
9.898673750E-1,-6.018983459E-1,2.936144257E0,9.244775391E0,9.718492514E0
9.998253752E-1,-5.188211060E-1,2.984044647E0,9.195527802E0,9.681499334E0
1.009784375E0,-5.569917297E-1,3.026855621E0,9.210796051E0,9.711377793E0
1.019743375E0,-7.894583130E-1,2.939437408E0,9.337432709E0,9.820956486E0
1.029702375E0,-1.007405090E0,2.751278687E0,9.456135864E0,9.899641656E0
1.039661375E0,-1.189875641E0,2.610571289E0,9.538165283E0,9.960295350E0
1.049620375E0,-1.374890900E0,3.208877106E0,9.489067383E0,1.011086629E1
1.059578375E0,-1.244362335E0,4.323459320E0,9.477990417E0,1.049156997E1
1.069537375E0,-1.096769257E0,3.066972198E0,9.355245667E0,9.906050815E0
1.079496375E0,-9.529183960E-1,2.317929840E0,9.058562622E0,9.398851472E0
1.089455375E0,-5.956114197E-1,2.480791168E0,8.908275146E0,9.266414834E0
1.099414375E0,-3.841012573E-1,2.772534485E0,8.898096313E0,9.327947215E0
1.109373375E0,-6.231541443E-1,2.952460327E0,9.151669006E0,9.636305759E0
1.119332375E0,-7.813751221E-1,2.928959198E0,9.728419647E0,1.018977418E1
1.129290375E0,-1.459165649E0,3.326981506E0,9.786498871E0,1.043903877E1
1.139249375E0,-1.634900208E0,3.507206726E0,9.894274750E0,1.062403269E1
1.149208375E0,-1.453327789E0,3.207679596E0,9.394164734E0,1.003253214E1
1.159167375E0,-1.519490204E0,2.889441376E0,9.465266876E0,1.001244221E1
1.169126375E0,-1.479373627E0,2.679727478E0,9.619595947E0,1.009485571E1
1.179085375E0,-1.460213470E0,2.644999695E0,9.756710815E0,1.021379717E1
1.189044375E0,-1.420545959E0,2.603535919E0,9.768386536E0,1.020870832E1
1.199002375E0,-1.191671906E0,2.466421051E0,9.646839294E0,1.002820139E1
1.208961375E0,-9.154962158E-1,2.441423035E0,9.335486755E0,9.692780443E0
1.218920375E0,-6.869215393E-1,2.268981628E0,8.969497833E0,9.277501291E0
1.228879375E0,-7.140151978E-1,2.300266571E0,8.930279388E0,9.249374787E0
1.238838375E0,-9.333091736E-1,2.388133850E0,9.000333710E0,9.358432357E0
1.248797375E0,-6.004014587E-1,2.541864166E0,9.219627686E0,9.582436538E0
1.258756375E0,-5.281018066E-1,2.738555145E0,9.594597931E0,9.991740852E0
1.268714375E0,-6.580316162E-1,2.988984375E0,9.763297119E0,1.023176445E1
1.278673375E0,-6.375242615E-1,2.926713867E0,9.188791809E0,9.664677240E0
1.288632375E0,-5.780978394E-1,2.052232361E0,8.500074005E0,8.763396195E0
1.298591375E0,-6.297404480E-1,1.273551636E0,7.504194946E0,7.637502772E0
1.308550375E0,-1.006057892E0,9.014254761E-1,7.269782410E0,7.394217785E0
1.318509375E0,-2.800226898E0,2.320773926E0,7.708520050E0,8.523411503E0
1.328468375E0,-3.517385559E0,3.781286774E0,8.296497345E0,9.772512422E0
1.338426375E0,-2.807262268E0,4.555476837E0,8.768465881E0,1.027224827E1
1.348385458E0,-1.576671295E0,4.416865082E0,8.982520752E0,1.013312729E1
1.358344458E0,-1.337169342E0,3.680097198E0,9.023385773E0,9.836291376E0
1.368303458E0,-8.916957092E-1,2.949915619E0,8.590935059E0,9.126953959E0
1.378262458E0,-1.167422333E0,2.616708527E0,8.348439331E0,8.826464620E0
1.388221458E0,-1.547182617E0,2.421514435E0,8.095615082E0,8.590488331E0
1.398179458E0,-1.474134521E0,2.224673767E0,7.406448212E0,7.872593033E0
1.408138458E0,-1.422192535E0,2.158211975E0,6.824308777E0,7.297376297E0
1.418097458E0,-1.188229065E0,2.173330536E0,6.333180084E0,6.800325280E0
1.428056458E0,-7.080276489E-1,1.985022125E0,6.174659729E0,6.524418653E0
1.438015458E0,-7.530839539E-1,1.948498077E0,6.201304321E0,6.543695858E0
1.447974458E0,-6.941065979E-1,1.662143555E0,6.028413849E0,6.291762766E0
1.457933458E0,-1.447340240E0,1.174757080E0,5.983058167E0,6.266724263E0
1.467891458E0,-1.622026978E0,8.900491333E-1,5.732030182E0,6.023232436E0
1.477850458E0,-1.536704407E0,6.453080750E-1,5.717660065E0,5.955629233E0
1.487809458E0,-2.355352020E0,9.524693298E-1,5.248236237E0,5.830854531E0
1.497768458E0,-1.460512848E0,1.175206146E0,6.228098602E0,6.504107892E0
1.507727458E0,-2.122735748E0,-2.484832764E-2,6.975793762E0,7.291661204E0
1.517686458E0,-2.015708313E0,-7.185058594E-1,7.502847748E0,7.802054537E0
1.527645458E0,-1.838776245E0,-1.112486572E0,8.206384735E0,8.483128838E0
1.537603458E0,-1.422940979E0,-1.208886108E0,9.026529236E0,9.217613395E0
1.547562458E0,-9.865983582E-1,-1.035546570E0,9.850865021E0,9.954158662E0
1.557521458E0,-8.660989380E-1,-8.220904541E-1,1.026041336E1,1.032966807E1
1.567480458E0,-1.116079102E0,-8.713380432E-1,1.038465500E1,1.048074053E1
1.577439458E0,-1.559606781E0,-1.146914978E0,1.054152878E1,1.071781770E1
1.587398458E0,-1.967209167E0,-1.485660553E0,1.066741699E1,1.094855627E1
1.597357458E0,-2.287093964E0,-1.630708923E0,1.072160431E1,1.108344754E1
1.607315458E0,-2.223027191E0,-1.569635925E0,1.078612015E1,1.112411770E1
1.617274458E0,-1.954036560E0,-1.477876740E0,1.054542068E1,1.082627711E1
1.627233458E0,-1.323248291E0,-1.415157166E0,1.029663803E1,1.047732841E1
1.637192458E0,-7.815248108E-1,-1.097068634E0,9.897567902E0,9.988803281E0
1.647151458E0,-4.308041382E-1,-7.212002563E-1,9.287286987E0,9.325203569E0
1.657110458E0,-1.032852173E-2,-4.228706360E-1,8.642427979E0,8.652773406E0
1.667068458E0,1.216969299E-1,-1.893562317E-1,7.991731110E0,7.994900378E0
1.677027458E0,6.511459351E-2,1.893562317E-1,7.698341217E0,7.700944954E0
1.686986458E0,-2.633024597E-1,7.206015015E-1,7.639812927E0,7.678237836E0
1.696945458E0,-8.919950867E-1,7.914042664E-1,7.435936890E0,7.530945052E0
1.706904458E0,-1.301992493E0,3.742218018E-1,7.385940857E0,7.509151001E0
1.716863458E0,-1.544787598E0,-3.016227722E-1,7.543563080E0,7.706016413E0
1.726822458E0,-1.449136505E0,-1.141675873E0,7.742649078E0,7.959399171E0
1.736780458E0,-1.050066376E0,-1.405726776E0,8.114625549E0,8.302159657E0
1.746739458E0,-5.315446472E-1,-8.499325562E-1,8.698860626E0,8.756431993E0
1.756698458E0,-2.306703186E-1,-1.978884888E-1,9.129066010E0,9.134123650E0
1.766657458E0,-5.569917297E-1,6.825805664E-2,9.213340759E0,9.230414232E0
1.776616458E0,-1.202299805E0,-6.062393188E-2,9.328601074E0,9.405955458E0
1.786575458E0,-2.005230103E0,-6.529421997E-1,9.469458160E0,9.701439024E0
1.796534458E0,-2.473905487E0,-1.568588104E0,9.760303345E0,1.019039736E1
1.806492458E0,-2.068249054E0,-1.712888031E0,1.062415695E1,1.095830053E1
1.816451458E0,-2.173180847E0,-2.089804230E0,1.063747925E1,1.105648956E1
1.826410458E0,-1.957928467E0,-2.483335876E0,1.042387344E1,1.089300595E1
1.836369458E0,-1.538650360E0,-2.110610962E0,1.055185730E1,1.087031812E1
1.846328458E0,-1.245260468E0,-1.580563202E0,1.076007431E1,1.094660006E1
1.856287458E0,-1.476978607E0,-1.438508606E0,1.058688446E1,1.078577282E1
1.866246458E0,-1.784139862E0,-1.408421173E0,1.016745667E1,1.041844424E1
1.876204458E0,-1.877994690E0,-1.300196228E0,1.023601410E1,1.048777188E1
1.886163458E0,-1.845661926E0,-1.818268890E0,1.062535446E1,1.093666892E1
1.896122458E0,-1.986818390E0,-2.770139465E0,1.085392914E1,1.137668219E1
1.906081458E0,-1.928739166E0,-3.189716949E0,1.108010880E1,1.169030110E1
1.916040458E0,-1.728904724E0,-3.243604889E0,1.125539429E1,1.184035408E1
1.925999458E0,-1.435814209E0,-3.238964539E0,1.135523666E1,1.189511889E1
1.935957458E0,-1.197958832E0,-3.095862122E0,1.137888748E1,1.185320834E1
1.945916458E0,-1.137933655E0,-3.084635468E0,1.126796814E1,1.173784371E1
1.955875458E0,-1.220412140E0,-3.179238739E0,1.144983994E1,1.194553470E1
1.965834458E0,-1.503174133E0,-3.635939026E0,1.183468964E1,1.247154617E1
1.975793458E0,-1.949994965E0,-4.386178894E0,1.215667007E1,1.307002957E1
1.985752458E0,-2.309696960E0,-5.060227203E0,1.245978973E1,1.364503425E1
1.995711458E0,-2.519261169E0,-5.402116241E0,1.269599854E1,1.402561640E1
2.005670458E0,-2.819237366E0,-5.574258270E0,1.273551636E1,1.418498613E1
2.015628458E0,-2.932102661E0,-5.432053986E0,1.252071304E1,1.395968093E1
2.025587458E0,-2.857707367E0,-4.983885956E0,1.211760132E1,1.341051350E1
2.035546458E0,-2.634222107E0,-4.473297729E0,1.166838547E1,1.277108993E1
2.045505458E0,-2.543959808E0,-4.205055542E0,1.120554794E1,1.223595229E1
2.055464458E0,-2.643203430E0,-4.243375854E0,1.093131821E1,1.202025294E1
2.065423458E0,-2.798730011E0,-4.527035980E0,1.091979218E1,1.214779015E1
2.075382458E0,-3.036435699E0,-4.857099609E0,1.095646591E1,1.236347458E1
2.085340458E0,-3.296445007E0,-4.814887390E0,1.098775085E1,1.244107548E1
2.095299458E0,-3.262765045E0,-4.489613800E0,1.087772964E1,1.221176769E1
2.105258458E0,-3.017874298E0,-4.130959625E0,1.048359924E1,1.166525807E1
2.115217458E0,-2.681074677E0,-3.842210083E0,9.920470276E0,1.097116540E1
2.125176458E0,-2.364033966E0,-3.694167938E0,9.335037689E0,1.031399350E1
2.135135458E0,-2.224524078E0,-3.571123810E0,8.992549896E0,9.928110912E0
2.145094458E0,-2.299518127E0,-3.423830109E0,8.864715729E0,9.777197000E0
2.155052458E0,-2.447260895E0,-3.376229095E0,8.856183472E0,9.788768793E0
2.165011458E0,-2.448308716E0,-3.352129211E0,9.018146667E0,9.927635929E0
2.174970458E0,-2.425256653E0,-3.289259949E0,9.216484222E0,1.008189874E1
2.184929458E0,-2.495610352E0,-3.290457458E0,9.253008270E0,1.013278557E1
2.194888458E0,-2.386636963E0,-3.177592163E0,9.246272278E0,1.006412833E1
2.204847458E0,-2.132166138E0,-3.036136322E0,9.123677216E0,9.849149310E0
2.214806458E0,-1.881587219E0,-2.975811768E0,8.891809387E0,9.563477418E0
2.224764458E0,-1.669478302E0,-2.808310089E0,8.709189148E0,9.301813746E0
2.234723458E0,-1.631307678E0,-2.577639771E0,8.501570892E0,9.032280950E0
2.244682458E0,-1.689087524E0,-2.479144592E0,8.513845367E0,9.026889692E0
2.254641458E0,-1.878443756E0,-2.526895294E0,8.645421753E0,9.200927565E0
2.264600458E0,-1.846859436E0,-2.658022614E0,8.977581024E0,9.543214083E0
2.274559458E0,-1.514999542E0,-2.619851990E0,9.310189362E0,9.789712662E0
2.284518458E0,-1.538949738E0,-2.638413391E0,9.280850372E0,9.770556543E0
2.294476458E0,-1.431622925E0,-2.402503967E0,9.513766022E0,9.916315517E0
2.304435458E0,-1.673220520E0,-2.069895630E0,9.429940338E0,9.798362598E0
2.314394458E0,-2.261347504E0,-1.969604187E0,9.089548187E0,9.571463808E0
2.324353458E0,-2.683918762E0,-1.907183990E0,8.838520203E0,9.431872034E0
2.334312458E0,-2.950065308E0,-1.787882080E0,8.616082764E0,9.280963842E0
2.344271458E0,-2.943029938E0,-1.904190216E0,8.378377075E0,9.082101519E0
2.354230958E0,-2.665656738E0,-2.059567108E0,8.130043488E0,8.800292588E0
2.364189958E0,-2.403402100E0,-2.143093414E0,8.134234772E0,8.748426507E0
2.374147958E0,-2.034269714E0,-2.028581543E0,8.410410461E0,8.887541869E0
2.384106958E0,-1.976489868E0,-1.714684296E0,8.678203583E0,9.064097962E0
2.394065958E0,-2.337688751E0,-1.583257599E0,8.609945526E0,9.061051555E0
2.404024958E0,-2.697540436E0,-1.700314178E0,8.592731323E0,9.165305467E0
2.413983958E0,-2.850971375E0,-1.960024109E0,8.280630341E0,8.974328450E0
2.423942958E0,-2.801125031E0,-2.474204865E0,7.812404022E0,8.660349170E0
2.433901958E0,-2.221081238E0,-2.649640045E0,7.749834137E0,8.486089994E0
2.443859958E0,-1.313967590E0,-2.489173737E0,7.665709076E0,8.166124684E0
2.453818958E0,-6.776408386E-1,-2.484533386E0,7.465126190E0,7.896848250E0
2.463777958E0,-2.239343262E-1,-2.463876343E0,7.353907471E0,7.758916696E0
2.473736958E0,8.412506104E-2,-2.679577789E0,7.561076660E0,8.022287356E0
2.483695958E0,2.350112915E-1,-3.297343140E0,8.122708740E0,8.769612270E0
2.493654958E0,4.417314148E-1,-3.957919464E0,9.116043091E0,9.947989483E0
2.503613958E0,1.052162018E0,-4.077520752E0,9.843829651E0,1.070673632E1
2.513572958E0,1.098266144E0,-4.664450226E0,9.393715668E0,1.054538660E1
2.523530958E0,1.725012817E0,-5.385051727E0,8.769962769E0,1.043487893E1
2.533489958E0,2.267484741E0,-5.521867218E0,8.341553650E0,1.025738865E1
2.543448958E0,1.534908142E0,-5.222489777E0,8.127648468E0,9.782076062E0
2.553407958E0,1.427281952E0,-5.020410004E0,7.991282043E0,9.544749293E0
2.563366958E0,2.396366730E0,-3.947141876E0,9.159752197E0,1.025785371E1
2.573325958E0,1.986968079E0,-3.705244904E0,9.151669006E0,1.007124260E1
2.583284958E0,1.246008911E0,-4.500541077E0,8.706943817E0,9.880196295E0
2.593243958E0,1.068777466E-1,-4.919519806E0,8.713530121E0,1.000693285E1
2.603201958E0,-6.785389709E-1,-5.485343170E0,9.172176361E0,1.070879190E1
2.613160958E0,-5.046006775E-1,-6.207441559E0,9.652677155E0,1.148743352E1
2.623119958E0,-1.660047913E-1,-6.432573395E0,1.038510406E1,1.221703501E1
2.633078958E0,4.411326599E-1,-5.495372314E0,1.091515182E1,1.222841994E1
2.643037958E0,7.241940308E-1,-4.772226105E0,1.038974442E1,1.145623795E1
2.652996958E0,1.378633118E-1,-4.512366486E0,9.679621124E0,1.068061434E1
2.662955958E0,-4.800517273E-1,-4.562212830E0,8.964558105E0,1.007013096E1
2.672914958E0,-6.712042236E-1,-5.048102417E0,8.411607971E0,9.833056584E0
2.682872958E0,-1.504371643E-1,-5.229674835E0,8.022267609E0,9.577520964E0
2.692831958E0,1.129401398E0,-5.232518921E0,7.886799316E0,9.531862632E0
2.702790958E0,2.198927307E0,-4.911436615E0,8.050558777E0,9.683438828E0
2.712749958E0,2.177970886E0,-4.667593689E0,8.248447266E0,9.724549878E0
2.722708958E0,1.182690582E0,-4.437821503E0,8.454418945E0,9.621341715E0
2.732667958E0,-6.524931335E-1,-4.634213104E0,8.616382141E0,9.805290388E0
2.742626958E0,-2.392624512E0,-4.946912842E0,8.453820190E0,1.008284060E1
2.752585958E0,-3.470532990E0,-5.060077515E0,7.646399231E0,9.803897433E0
2.762543958E0,-3.542383575E0,-4.995411987E0,6.797364807E0,9.149141525E0
2.772502958E0,-2.882555695E0,-4.660109253E0,6.056255951E0,8.167250561E0
2.782461958E0,-2.047592010E0,-4.374652863E0,5.146896973E0,7.058382900E0
2.792420958E0,-7.201524353E-1,-4.332889709E0,4.108656006E0,6.014449845E0
2.802379958E0,3.677851868E-1,-4.581971741E0,3.485801239E0,5.768928952E0
2.812338958E0,3.079096985E-1,-6.603966980E0,3.961811371E0,7.707343096E0
2.822297958E0,-5.992039490E-1,-8.652307434E0,5.492827606E0,1.026609100E1
2.832256958E0,-3.335064697E-1,-1.249751129E1,9.536967773E0,1.572427325E1
2.842214958E0,9.677375793E-1,-1.272369095E1,9.853110352E0,1.612180545E1
2.852173958E0,1.888023834E0,-1.213331863E1,8.194259949E0,1.476238298E1
2.862132958E0,2.688259735E0,-1.098610428E1,7.450307007E0,1.354357051E1
2.872091958E0,4.287833405E0,-1.092188782E1,7.031178589E0,1.367883844E1
2.882050958E0,2.705923004E0,-9.423354034E0,6.106102295E0,1.155015609E1
2.892009958E0,2.839145966E0,-8.908424835E0,6.663094025E0,1.148118482E1
2.901968958E0,3.014132080E0,-8.920549622E0,6.295458527E0,1.132669395E1
2.911927958E0,2.593656464E0,-8.805289307E0,5.102439423E0,1.050214558E1
2.921885958E0,2.515668640E0,-8.984466705E0,4.536466370E0,1.037442807E1
2.931844958E0,3.244802399E0,-9.490115204E0,4.365222473E0,1.093829038E1
2.941803958E0,4.814887390E0,-9.227261810E0,5.210215302E0,1.163923729E1
2.951762958E0,5.728737030E0,-7.670349426E0,6.514902191E0,1.158001031E1
2.961721958E0,4.574636993E0,-6.759792938E0,6.314019928E0,1.031934842E1
2.971680958E0,3.012485504E0,-6.180647278E0,5.657934265E0,8.904363528E0
2.981639958E0,2.174078979E0,-5.380561066E0,4.881199493E0,7.583084154E0
2.991597958E0,2.410736847E0,-5.021457825E0,4.789290619E0,7.346019021E0
3.001556958E0,3.004701691E0,-5.274581451E0,5.086572418E0,7.919763930E0
3.011515958E0,3.640878754E0,-6.729555817E0,5.439538422E0,9.387837761E0
3.021474958E0,4.784650269E0,-8.328081665E0,6.425538025E0,1.155583668E1
3.031433958E0,6.177503815E0,-8.695866852E0,6.813830566E0,1.265732755E1
3.041392958E0,7.891140289E0,-8.677155762E0,7.530839539E0,1.393831666E1
3.051351958E0,6.868766327E0,-8.262667694E0,6.562203827E0,1.259024016E1
3.061310958E0,5.546865234E0,-7.904911652E0,5.879174194E0,1.130575214E1
3.071269958E0,4.733606415E0,-7.418722687E0,4.906646576E0,1.007569633E1
3.081227958E0,4.274810486E0,-7.140002289E0,4.590503998E0,9.504018325E0
3.091186958E0,3.997886353E0,-7.761360168E0,4.255800018E0,9.712550682E0
3.101145958E0,4.308191071E0,-8.605005798E0,4.235142975E0,1.051394650E1
3.111104958E0,4.228406982E0,-8.983119507E0,4.326153717E0,1.083011854E1
3.121063958E0,4.413571930E0,-8.464597778E0,4.020040283E0,1.035807688E1
3.131022958E0,5.656886444E0,-7.227121124E0,3.627855835E0,9.868788271E0
3.140981958E0,5.273533630E0,-6.118676147E0,2.485581207E0,8.451418146E0
3.150939958E0,4.399800568E0,-6.010002136E0,1.687590637E0,7.637167857E0
3.160898958E0,3.526815948E0,-6.148613892E0,2.354304199E0,7.469044904E0
3.170857958E0,3.224893799E0,-6.049370270E0,3.176244965E0,7.555352589E0
3.180816958E0,3.242856445E0,-6.554569702E0,3.551664276E0,8.129749137E0
3.190775958E0,3.049009552E0,-6.756799164E0,3.713028717E0,8.290800712E0
3.200734958E0,4.083059235E0,-7.813751221E0,4.221670990E0,9.774895744E0
3.210693958E0,4.525838470E0,-8.834777985E0,3.846700745E0,1.064582653E1
3.220652958E0,4.515360260E0,-8.959319000E0,3.588637390E0,1.065533639E1
3.230610958E0,6.568640442E0,-9.818083191E0,4.118984528E0,1.251030888E1
3.240569958E0,6.366860046E0,-9.837093658E0,4.193080444E0,1.244537031E1
3.250528958E0,5.659131775E0,-8.882229309E0,4.303401031E0,1.137712751E1
3.260487958E0,5.704038391E0,-8.778195648E0,3.495081940E0,1.103668295E1
3.270446958E0,4.885540466E0,-9.170679474E0,2.990481262E0,1.081262437E1
3.280405958E0,3.314856720E0,-9.274264069E0,2.656226349E0,1.020077387E1
3.290364958E0,2.563868408E0,-9.772278442E0,2.664309540E0,1.044841579E1
3.300323958E0,2.979404297E0,-1.051069290E1,2.387684784E0,1.118268992E1
3.310281958E0,3.149300995E0,-1.077175003E1,2.035916290E0,1.140586036E1
3.320240958E0,4.846920776E0,-9.807155914E0,5.926176453E-1,1.095555310E1
3.330199958E0,5.260211334E0,-8.022866364E0,1.428030396E-1,9.594613107E0
3.340158958E0,4.484075317E0,-6.304439850E0,5.529501343E-1,7.756200560E0
3.350117958E0,4.370461578E0,-6.561305695E0,4.664300537E-1,7.897418807E0
3.360076958E0,5.232369232E0,-7.799680481E0,9.502239990E-1,9.440107469E0
3.370035958E0,3.690126343E0,-8.640931091E0,1.785487061E0,9.564030876E0
3.379994958E0,3.812272339E0,-8.651708679E0,1.872156830E0,9.637969426E0
3.389952958E0,4.646337891E0,-8.493487701E0,1.824406128E0,9.851712889E0
3.399911958E0,4.986131287E0,-8.293653259E0,2.269281006E0,9.939608940E0
3.409870958E0,5.929768982E0,-7.864495697E0,8.611592102E-1,9.887064677E0
3.419829958E0,5.491779785E0,-8.610095215E0,1.600172424E0,1.033701778E1
3.429788958E0,4.567002869E0,-8.945847015E0,2.032323761E0,1.024773311E1
3.439747958E0,5.159321136E0,-8.503516846E0,1.976938934E0,1.014084222E1
3.449706958E0,4.545597382E0,-7.914791107E0,2.292033691E0,9.410621248E0
3.459665958E0,4.264032898E0,-7.343578949E0,1.967658234E0,8.716754399E0
3.469624958E0,3.986659698E0,-7.335495758E0,1.701661377E0,8.520481501E0
3.479582958E0,3.294648743E0,-7.314838715E0,1.551074524E0,8.171132598E0
3.489541958E0,2.487377472E0,-7.682923279E0,9.385482788E-1,8.129897273E0
3.499500958E0,3.679348755E0,-7.241640930E0,1.429527283E0,8.247576545E0
3.509459958E0,3.517235870E0,-6.809489594E0,2.437830505E0,8.042581319E0
3.519418958E0,3.594175873E0,-7.753426666E0,2.839445343E0,9.005341478E0
3.529377958E0,4.655169525E0,-8.531508636E0,3.965104523E0,1.049663264E1
3.539336958E0,5.212310944E0,-9.196725311E0,3.947141876E0,1.128396521E1
3.549294958E0,6.012097778E0,-9.641450500E0,4.301904144E0,1.214945541E1
3.559253958E0,5.195246429E0,-9.299711151E0,3.221001892E0,1.112879446E1
3.569212958E0,4.576582947E0,-1.041668839E1,3.729494476E0,1.197337202E1
3.579171958E0,4.471800842E0,-1.039962387E1,2.946622467E0,1.169751099E1
3.589130958E0,3.038830719E0,-9.673184509E0,1.148262177E0,1.020409216E1
3.599089958E0,9.538165283E-1,-8.126450958E0,-1.193019104E-1,8.183104795E0
3.609048958E0,-1.733545074E0,-7.731871490E0,4.831951904E-1,7.938544757E0
3.619007958E0,-1.728006592E0,-7.916886749E0,1.656006317E0,8.270759306E0
3.628966958E0,-4.291575623E-1,-8.071365509E0,2.156715088E0,8.365556608E0
3.638924958E0,1.242715759E0,-7.500003662E0,9.626481628E-1,7.662968672E0
3.648883958E0,2.868185577E0,-6.969806213E0,6.770420837E-1,7.567236823E0
3.658842958E0,3.658991089E0,-7.167545013E0,1.378483429E0,8.164688229E0
3.668801958E0,4.104315033E0,-7.340884552E0,1.838177490E0,8.608884038E0
3.678760958E0,2.825973358E0,-7.047494659E0,2.256258087E0,7.921111472E0
3.688719958E0,1.973047028E0,-7.154821472E0,2.183060303E0,7.736287039E0
3.698678958E0,2.112407227E0,-7.136858826E0,1.638043671E0,7.621037020E0
3.708637958E0,2.001038818E0,-8.063731384E0,1.586999817E0,8.458515745E0
3.718595958E0,2.234852600E0,-8.960217133E0,1.731449432E0,9.395635920E0
3.728554958E0,2.564018097E0,-9.802964630E0,2.450554047E0,1.042485105E1
3.738513958E0,4.730762329E0,-1.148666336E1,1.762135620E0,1.254705819E1
3.748472958E0,3.150049438E0,-1.152857620E1,1.093925171E0,1.200114799E1
3.758431958E0,1.575473785E0,-1.035486694E1,5.072950745E-1,1.048631181E1
3.768390958E0,1.860930176E0,-1.043330383E1,3.183879089E-1,1.060274780E1
3.778349958E0,2.276316376E0,-1.074570419E1,6.231541443E-1,1.100182239E1
3.788308958E0,2.977757721E0,-1.146316223E1,3.040177917E-1,1.184751266E1
3.798266958E0,2.607577515E0,-1.107472000E1,-1.692979431E-1,1.137882004E1
3.808225958E0,5.035528564E-1,-1.032208511E1,-1.374441833E0,1.042535836E1
3.818184958E0,-5.459147644E-1,-9.995913391E0,-1.938917999E0,1.019684806E1
3.828143958E0,3.055146790E-1,-9.181007996E0,-1.455872498E0,9.300742538E0
3.838102958E0,1.809586945E0,-8.829239502E0,-3.622467041E-1,9.020049765E0
3.848061958E0,2.210153961E0,-1.108834167E1,-5.194198608E-2,1.130658214E1
3.858020958E0,4.060007172E0,-9.669741669E0,-1.190773773E0,1.055488059E1
3.867979958E0,4.273762665E0,-7.551646271E0,-1.397344208E0,8.788912307E0
3.877937958E0,4.409530334E0,-6.495592346E0,-7.069798279E-1,7.882670751E0
3.887896958E0,4.146527252E0,-6.029311981E0,3.067121887E-1,7.323958191E0
3.897855958E0,3.623365173E0,-5.397026825E0,1.078357544E0,6.589349643E0
3.907814958E0,3.867208099E0,-5.086572418E0,1.146914978E0,6.491835751E0
3.917773958E0,3.537144470E0,-5.204976196E0,9.966275024E-1,6.371533142E0
3.927732958E0,2.435285797E0,-5.263803864E0,2.877166901E0,6.474282771E0
3.937691958E0,7.065307617E-1,-5.044809265E0,1.764231262E0,5.390899571E0
3.947650958E0,1.514849854E-1,-5.527106323E0,6.578819275E-1,5.568182885E0
3.957608958E0,1.945953369E-1,-5.030289459E0,8.454418945E-1,5.104552026E0
3.967567958E0,8.183482361E-1,-4.530927887E0,2.234253845E0,5.117703743E0
3.977526958E0,1.325942688E0,-5.103936310E0,7.933502197E-2,5.273953348E0
3.987485958E0,1.523980865E0,-6.064788208E0,-2.228865051E-1,6.257303899E0
3.997444958E0,1.451381836E0,-8.633596344E0,-5.888754272E-1,8.774523881E0
4.007403958E0,3.807033234E0,-2.152912994E1,2.100132751E-1,2.186414974E1
4.017362958E0,6.902745667E0,-2.900608154E1,1.630110168E-1,2.981655977E1
4.027321958E0,6.515800323E0,-2.896192337E1,1.347348175E0,2.971639289E1
4.037280958E0,2.318827972E0,-2.566158646E1,1.721120911E0,2.582355978E1
4.047238958E0,1.710942078E-1,-1.963871109E1,7.954458618E-1,1.965555852E1
4.057197958E0,-4.590953064E-1,-1.309940964E1,-8.879534912E-1,1.313749454E1
4.067156958E0,-1.151106262E-1,-8.694519653E0,-2.122735748E0,8.950638498E0
4.077115958E0,9.741741943E-1,-6.166277161E0,-1.662143555E0,6.460240752E0
4.087074958E0,1.814227295E0,-6.040388947E0,-1.238674164E0,6.427443737E0
4.097033958E0,2.479294281E0,-6.209237823E0,-4.465214539E-1,6.700814569E0
4.106992958E0,2.602488098E0,-6.170019379E0,9.357041931E-1,6.761481034E0
4.116951958E0,2.271676025E0,-7.683072968E0,1.901046753E0,8.234324559E0
4.126909958E0,2.122286682E0,-9.309291229E0,2.373464355E0,9.838716227E0
4.136868958E0,2.164049835E0,-1.019739441E1,2.074236603E0,1.062884857E1
4.146827958E0,2.092348938E0,-1.043734543E1,1.158890076E0,1.070790035E1
4.156786958E0,2.311493225E0,-1.036684204E1,4.608915710E-1,1.063140799E1
4.166745958E0,2.643353119E0,-1.029933243E1,2.377056885E-1,1.063579184E1
4.176704958E0,2.818937988E0,-1.023586441E1,1.281335449E-1,1.061770925E1
4.186663958E0,2.999312897E0,-1.024379791E1,1.329235840E-1,1.067468698E1
4.196622958E0,3.247197418E0,-1.027478348E1,6.945556641E-2,1.077591252E1
4.206581958E0,3.417243805E0,-1.028316605E1,-1.576222229E-1,1.083724614E1
4.216539958E0,3.393143921E0,-1.031011002E1,-4.171824646E-1,1.086212849E1
4.226498958E0,3.082090759E0,-1.036115387E1,-6.288423157E-1,1.082812244E1
4.236457958E0,2.666405182E0,-1.043824356E1,-4.966671753E-1,1.078486548E1
4.246416958E0,2.243384857E0,-1.002061203E1,-9.430389404E-3,1.026866739E1
4.256375958E0,2.198777618E0,-9.527238007E0,9.187893677E-1,9.820746456E0
4.266334958E0,2.544708252E0,-9.339378662E0,1.414408722E0,9.782642072E0
4.276293958E0,2.201472015E0,-8.660091248E0,1.823807373E0,9.119755084E0
4.286252958E0,1.814077606E0,-8.738228760E0,1.960323486E0,9.137307458E0
4.296211958E0,1.319955139E0,-9.385482788E0,1.856738892E0,9.658004351E0
4.306169958E0,8.277786255E-1,-5.275778961E0,-7.451504517E-1,5.392059931E0
4.316128958E0,2.632425842E0,-3.288661194E0,6.137237549E-1,4.256949038E0
4.326087958E0,4.218677216E0,-5.390889587E0,3.394491119E0,7.640778622E0
4.336046958E0,3.911366272E0,-5.891897736E0,1.691482544E-2,7.072024544E0
4.346005958E0,2.782863007E0,-6.163882141E0,3.507206726E-1,6.772058369E0
4.355964708E0,1.545236664E0,-6.444548492E0,1.315763855E0,6.756566890E0
4.365923708E0,1.071771240E0,-6.555168457E0,2.301015015E0,7.029480577E0
4.375882708E0,2.198927307E-1,-6.030958557E0,3.416794739E0,6.935077521E0
4.385841708E0,-1.512005768E0,-4.408931580E0,4.836741943E0,6.717061243E0
4.395799708E0,-4.465214539E0,-5.988746338E0,5.859864349E0,9.494273736E0
4.405758708E0,-5.652246094E0,-3.355572052E0,4.930147705E0,8.216696787E0
4.415717708E0,-4.452341309E0,4.457131348E0,6.519392853E0,9.065971881E0
4.425676708E0,-1.687740326E0,-1.452175186E1,9.416767731E0,1.738980331E1
4.435635708E0,-2.300565948E0,-2.346355728E1,7.083569641E0,2.461723142E1
4.445594708E0,8.304879913E0,-2.895219360E1,-9.853260040E0,3.169049192E1
4.455553708E0,1.727856903E1,-2.470791962E1,-2.641482010E1,4.008457260E1
4.465512708E0,6.915618896E-2,-2.971171417E0,7.261549530E0,7.846192946E0
4.475470708E0,2.134860535E0,-1.233450027E1,9.035360870E0,1.543811104E1
4.485429708E0,4.025129700E0,-1.436383026E1,4.588408356E0,1.560688246E1
4.495388708E0,6.250701599E0,-1.132260452E1,2.227667542E0,1.312383886E1
4.505347708E0,7.716004486E0,-1.014500336E1,-2.376607819E0,1.296557299E1
4.515306708E0,8.259973297E0,-9.216933289E0,-4.374802551E0,1.312699187E1
4.525265708E0,8.476423187E0,-7.145391083E0,-4.658911743E0,1.202546558E1
4.535224708E0,7.166946259E0,-6.568191376E0,-3.811823273E0,1.044204258E1
4.545183708E0,3.990102539E0,-7.096293182E0,3.393443298E-1,8.148217583E0
4.555142708E0,4.430337067E0,-8.502768402E0,2.630180511E0,9.941971965E0
4.565100708E0,8.181536407E0,-8.261170807E0,1.293759613E0,1.169864501E1
4.575059708E0,8.374784546E0,-8.953032074E0,6.780899048E-2,1.225962469E1
4.585018708E0,7.848329315E0,-8.422535248E0,6.584806824E-1,1.153121719E1
4.594977708E0,7.389533386E0,-8.283624115E0,1.677112427E0,1.122659068E1
4.604936708E0,5.576503601E0,-8.700956268E0,2.159110107E0,1.055773597E1
4.614895708E0,4.230502625E0,-8.746611328E0,2.456990662E0,1.002183443E1
4.624854708E0,3.802841949E0,-8.373587036E0,2.186503143E0,9.453008132E0
4.634813708E0,3.408412170E0,-8.188871155E0,1.106948090E0,8.938692208E0
4.644772708E0,3.506458282E0,-8.141419830E0,2.758763123E-1,8.868713226E0
4.654730708E0,3.973187714E0,-8.016130371E0,2.680924988E-1,8.950778755E0
4.664689708E0,4.279301147E0,-7.804919586E0,4.462220764E-1,8.912255730E0
4.674648708E0,4.454736328E0,-7.654482422E0,6.737489319E-1,8.881988208E0
4.684607708E0,4.654271393E0,-7.559579773E0,9.629475403E-1,8.929544026E0
4.694566708E0,4.733606415E0,-7.622898102E0,1.173709259E0,9.049486095E0
4.704525708E0,5.008434906E0,-7.783813477E0,1.379830627E0,9.358210566E0
4.714484708E0,5.288352814E0,-8.203091583E0,1.674567719E0,9.902603902E0
4.724443708E0,5.511838074E0,-8.802445221E0,1.797162781E0,1.054007566E1
4.734402708E0,5.608087921E0,-9.367071075E0,1.742676086E0,1.105574921E1
4.744360708E0,5.691314850E0,-9.690249023E0,1.650916901E0,1.135858783E1
4.754319708E0,5.387746124E0,-9.366472321E0,1.494342499E0,1.090833037E1
4.764278708E0,4.916675720E0,-8.668773193E0,1.297950897E0,1.005017439E1
4.774237708E0,4.882995758E0,-7.959997101E0,7.719447327E-1,9.370224122E0
4.784196708E0,4.778363342E0,-7.392527161E0,4.388873291E-1,8.813332862E0
4.794155708E0,4.605622559E0,-7.165000305E0,2.513273621E-1,8.521276546E0
4.804114708E0,4.287983093E0,-7.161856842E0,3.797602844E-1,8.356028381E0
4.814073708E0,4.027973785E0,-7.179370422E0,7.819738770E-1,8.269184701E0
4.824032708E0,4.231101379E0,-7.679031372E0,1.205443268E0,8.850018936E0
4.833990708E0,4.750521240E0,-8.304131470E0,1.536554718E0,9.689533112E0
4.843949708E0,5.493426361E0,-8.814869385E0,1.641785889E0,1.051547033E1
4.853908708E0,6.658902740E0,-9.201964417E0,1.601220245E0,1.147087796E1
4.863867708E0,7.335645447E0,-9.399703217E0,1.708696747E0,1.204515501E1
4.873826708E0,7.441325684E0,-9.157357178E0,1.282682648E0,1.186911088E1
4.883785708E0,6.956783295E0,-8.710985413E0,1.003662872E0,1.119309787E1
4.893744708E0,5.868995361E0,-7.913144531E0,1.046473846E0,9.907475482E0
4.903703708E0,5.572611694E0,-7.317682800E0,6.963519287E-1,9.224282556E0
4.913662708E0,5.376669159E0,-7.466623077E0,3.350033569E-1,9.207130860E0
4.923621708E0,5.482050018E0,-7.985294495E0,4.766088867E-1,9.697677897E0
4.933579708E0,5.588628387E0,-8.557255096E0,1.065783691E0,1.027595625E1
4.943538708E0,5.236560516E0,-8.813671875E0,1.357676697E0,1.034145367E1
4.953497708E0,4.787045288E0,-8.748257904E0,1.431024170E0,1.007450491E1
4.963456708E0,4.209097137E0,-8.531508636E0,1.528621216E0,9.635342295E0
4.973415708E0,3.441792755E0,-8.236322479E0,1.271755371E0,9.016668291E0
4.983374708E0,2.708318024E0,-8.109685822E0,1.298549652E0,8.648018377E0
4.993333708E0,2.795586548E0,-7.892786865E0,1.485959930E0,8.504085228E0
5.003292708E0,3.803590393E0,-7.616162109E0,1.561552734E0,8.655152922E0
5.013251708E0,5.044809265E0,-7.539521484E0,1.543889465E0,9.202069301E0
5.023209708E0,5.944438477E0,-7.914042664E0,1.629810791E0,1.003118653E1
5.033168708E0,6.341712341E0,-8.558751984E0,1.761686554E0,1.079690189E1
5.043127708E0,6.408174133E0,-9.138496399E0,1.911375275E0,1.132387600E1
5.053086708E0,6.627168732E0,-9.166937256E0,1.763033752E0,1.144816108E1
5.063045708E0,6.264023895E0,-8.986562347E0,1.596879272E0,1.107006421E1
5.073004708E0,5.627098389E0,-8.724307709E0,1.540446625E0,1.049527308E1
5.082963708E0,4.959187317E0,-8.356372833E0,1.257085876E0,9.798100360E0
5.092922708E0,4.529880066E0,-8.083190918E0,7.680528259E-1,9.297725204E0
5.102881708E0,4.299808502E0,-8.120762787E0,7.315287781E-1,9.217932293E0
5.112840708E0,4.500840454E0,-8.355774078E0,6.712042236E-1,9.514569898E0
5.122798708E0,4.701722717E0,-8.498726807E0,3.475772095E-1,9.718814936E0
5.132757708E0,5.158872070E0,-8.378526764E0,2.607577515E-1,9.842848489E0
5.142716708E0,6.123915253E0,-8.443641357E0,2.246827698E-1,1.043301968E1
5.152675708E0,6.077212372E0,-8.652457123E0,8.322692871E-1,1.060613957E1
5.162634708E0,5.653144226E0,-8.600964203E0,1.516197052E0,1.040353201E1
5.172593708E0,5.813909912E0,-8.327333221E0,1.401984558E0,1.025239424E1
5.182552708E0,5.931116180E0,-8.256530457E0,1.337319031E0,1.025362651E1
5.192511708E0,5.364843750E0,-8.259374542E0,1.500779114E0,9.962487352E0
5.202470708E0,4.828658752E0,-8.310418396E0,1.719174957E0,9.763941919E0
5.212429708E0,4.615052948E0,-7.931406555E0,1.685045929E0,9.329807256E0
5.222387708E0,5.123395844E0,-7.855214996E0,1.711540833E0,9.533255458E0
5.232346708E0,5.749543762E0,-7.899822235E0,1.599124603E0,9.900588079E0
5.242305708E0,6.052962799E0,-7.900720367E0,1.437011719E0,1.005607993E1
5.252264708E0,6.644382935E0,-8.437653809E0,1.219813385E0,1.080878213E1
5.262223708E0,6.719676361E0,-8.704997864E0,1.209185486E0,1.106314457E1
5.272182708E0,5.967939606E0,-8.497229919E0,8.056246948E-1,1.041480920E1
5.282141708E0,5.508844299E0,-8.630153503E0,3.668870544E-1,1.024507302E1
5.292100708E0,4.902604980E0,-8.274044037E0,4.944218445E-1,9.630150221E0
5.302059708E0,4.613256683E0,-8.149203644E0,5.083428955E-1,9.378169851E0
5.312018708E0,4.561464386E0,-8.334518280E0,7.421566772E-1,9.530055028E0
5.321976708E0,4.718936920E0,-8.257129211E0,1.345252533E0,9.605115973E0
5.331935708E0,4.540957031E0,-7.981252899E0,1.726509705E0,9.343528475E0
5.341894708E0,4.678071899E0,-7.990084534E0,1.923500061E0,9.456514159E0
5.351853875E0,5.096152496E0,-7.927814026E0,2.168241119E0,9.670691550E0
5.361812875E0,5.120402069E0,-7.557633820E0,2.385589142E0,9.435432256E0
5.371771875E0,5.121000824E0,-7.727081451E0,2.569706268E0,9.619554434E0
5.381730875E0,5.034331055E0,-7.390431519E0,2.959196320E0,9.419119389E0
5.391689875E0,4.946164398E0,-6.823710022E0,3.434907074E0,9.100887172E0
5.401648875E0,5.052892456E0,-6.421047363E0,3.417543182E0,8.856702141E0
5.411607875E0,5.482050018E0,-6.452931061E0,2.898422699E0,8.949527687E0
5.421566875E0,5.472919006E0,-6.859785004E0,1.919757843E0,8.983037511E0
5.431524875E0,5.207670593E0,-8.118667145E0,9.005273438E-1,9.687287480E0
5.441483875E0,4.981640625E0,-9.079069977E0,2.499801636E-1,1.035899344E1
5.451442875E0,4.835694122E0,-8.881780243E0,5.306465149E-1,1.012677361E1
5.461401875E0,4.617447968E0,-8.217761078E0,1.076860657E0,9.487468142E0
5.471360875E0,4.866230621E0,-7.690407715E0,1.400487671E0,9.207819340E0
5.481319875E0,4.994513855E0,-7.413782959E0,1.442400513E0,9.054825545E0
5.491278875E0,5.120851135E0,-7.615563354E0,1.362317047E0,9.277706036E0
5.501237875E0,5.308710480E0,-8.205336914E0,1.333127747E0,9.863426911E0
5.511196875E0,5.794151001E0,-9.076225891E0,1.356928253E0,1.085317081E1
5.521155875E0,6.851701813E0,-1.004575974E1,1.671274567E0,1.227421138E1
5.531114875E0,7.225025482E0,-1.030262558E1,1.620530090E0,1.268744280E1
5.541072875E0,6.508315887E0,-9.671388245E0,1.289268951E0,1.172843300E1
5.551031875E0,5.713019714E0,-8.756640472E0,9.967771912E-1,1.050290014E1
5.560990875E0,5.068310394E0,-7.984396362E0,9.072633362E-1,9.500604312E0
5.570949875E0,4.812192993E0,-7.582631836E0,1.041384430E0,9.040906398E0
5.580908875E0,4.659211121E0,-7.469317474E0,1.042432251E0,8.864852892E0
5.590867875E0,5.065166931E0,-7.548053741E0,1.108295288E0,9.157365875E0
5.600826875E0,5.473068695E0,-7.657027130E0,1.060394897E0,9.471482606E0
5.610785875E0,5.298980713E0,-7.745792542E0,7.719447327E-1,9.416602220E0
5.620744875E0,4.962779846E0,-7.868537292E0,5.921685791E-1,9.321680457E0
5.630703875E0,4.957241364E0,-8.087382202E0,7.970924377E-1,9.519209483E0
5.640662875E0,5.249583435E0,-8.407566376E0,1.144220581E0,9.977702107E0
5.650621875E0,5.097799072E0,-8.560847626E0,1.308728485E0,1.004930036E1
5.660579875E0,4.832700348E0,-8.576115875E0,1.538650360E0,9.963543601E0
5.670538875E0,4.611909485E0,-8.532107391E0,1.843715973E0,9.872479639E0
5.680497875E0,4.483775940E0,-8.369395752E0,1.955234070E0,9.694017341E0
5.690456875E0,4.266876984E0,-8.015830994E0,1.684297485E0,9.235618211E0
5.700415875E0,4.329746246E0,-7.502847748E0,1.449585571E0,8.782979290E0
5.710374875E0,4.684957581E0,-7.165299683E0,9.839039612E-1,8.617332190E0
5.720333875E0,5.003794556E0,-7.118896179E0,2.713856506E-1,8.705762054E0
5.730292875E0,5.140160980E0,-7.087311859E0,7.095245361E-2,8.755357134E0
5.740251875E0,5.328319702E0,-7.223229218E0,5.156776428E-1,8.990659298E0
5.750210875E0,5.597609711E0,-7.707172852E0,1.211430817E0,9.602151450E0
5.760169875E0,6.164031830E0,-8.471483459E0,1.973496094E0,1.066095714E1
5.770127875E0,6.241869965E0,-9.044342194E0,2.390229492E0,1.124607769E1
5.780086875E0,6.084547119E0,-9.412277069E0,2.468666382E0,1.147636645E1
5.790045875E0,5.637127533E0,-9.725126495E0,2.464924164E0,1.150787310E1
5.800004875E0,4.572241974E0,-9.417665863E0,1.985770569E0,1.065556717E1
5.809963875E0,4.223018188E0,-9.000483398E0,1.544488220E0,1.006121404E1
5.819922875E0,4.609664154E0,-8.810079346E0,1.322499847E0,1.003072817E1
5.829881875E0,5.612129517E0,-8.782536621E0,1.109492798E0,1.048140837E1
5.839840875E0,6.467001801E0,-8.812923431E0,6.932084656E-1,1.095309407E1
5.849799875E0,6.533014526E0,-8.758287048E0,2.300715637E-1,1.092889765E1
5.859758875E0,6.401288452E0,-8.532556458E0,1.020877075E-1,1.066730685E1
5.869717875E0,6.039191437E0,-8.215366058E0,1.508862305E-1,1.019739375E1
5.879676875E0,5.420378265E0,-7.691156158E0,2.445913696E-1,9.412449656E0
5.889634875E0,4.887037354E0,-7.455246735E0,5.664221191E-1,8.932226597E0
5.899593875E0,4.359234924E0,-7.408843231E0,1.034349060E0,8.658161764E0
5.909552875E0,4.326602783E0,-7.677833862E0,1.514400787E0,8.942149306E0
5.919511875E0,4.725074158E0,-8.158634033E0,1.975442047E0,9.632860757E0
5.929470875E0,4.988226929E0,-8.433312836E0,1.991309052E0,9.998424127E0
5.939429875E0,5.068011017E0,-8.364456024E0,1.561702423E0,9.903927236E0
5.949388875E0,4.900808716E0,-8.346194000E0,8.611592102E-1,9.716916977E0
5.959347875E0,4.644691315E0,-8.349636841E0,3.591032410E-1,9.561304719E0
5.969306875E0,4.522545319E0,-8.420888672E0,3.335064697E-1,9.564309110E0
5.979265875E0,4.938979340E0,-8.523126068E0,6.191125488E-1,9.870182128E0
5.989224875E0,5.445525970E0,-8.513845367E0,5.004093933E-1,1.011878084E1
5.999183875E0,5.949976959E0,-8.985215149E0,3.414399719E-1,1.078206373E1
6.009141875E0,6.304888916E0,-9.353299713E0,3.363505554E-1,1.128490015E1
6.019100875E0,6.173462219E0,-8.977880402E0,2.827619934E-1,1.089926266E1
6.029059875E0,5.522166595E0,-8.325387268E0,2.859054565E-1,9.994405385E0
6.039018875E0,4.850064240E0,-7.728129272E0,4.513114929E-1,9.135140242E0
6.048977875E0,4.322112122E0,-7.259603577E0,8.393046570E-1,8.490402204E0
6.058936875E0,4.088148651E0,-6.706803131E0,1.371747437E0,7.973447100E0
6.068895875E0,4.905748444E0,-6.815626831E0,1.944755859E0,8.619815093E0
6.078854875E0,5.893993378E0,-7.329508209E0,1.981130219E0,9.611749345E0
6.088813875E0,6.312073975E0,-7.718698883E0,1.619332581E0,1.010162503E1
6.098772875E0,6.656807098E0,-8.381520538E0,1.213526459E0,1.077198281E1
6.108731875E0,6.528523865E0,-8.829987946E0,5.102888489E-1,1.099321180E1
6.118690875E0,6.025120697E0,-8.824449463E0,-5.837860107E-3,1.068517767E1
6.128648875E0,5.701643372E0,-8.393196259E0,2.559677124E-2,1.014668102E1
6.138607875E0,5.496569824E0,-7.486681366E0,4.158352661E-1,9.297074630E0
6.148566875E0,5.436993713E0,-6.956483917E0,1.072519684E0,8.894035507E0
6.158525875E0,5.565276947E0,-6.841073914E0,1.655557251E0,8.972929822E0
6.168484875E0,6.260730743E0,-7.295528870E0,1.981130219E0,9.815618568E0
6.178443875E0,6.144123230E0,-7.775430908E0,1.678309937E0,1.005108453E1
6.188402875E0,5.305716705E0,-7.769593048E0,1.196312256E0,9.484111392E0
6.198361875E0,5.293591919E0,-8.068222046E0,9.876461792E-1,9.700194192E0
6.208320875E0,5.553900604E0,-8.754095764E0,5.893244934E-1,1.038399287E1
6.218279875E0,6.533613281E0,-9.326206055E0,2.968327332E-1,1.139097588E1
6.228238875E0,6.866371307E0,-9.491163025E0,-1.330732727E-1,1.171524387E1
6.238196875E0,5.972280579E0,-8.685388641E0,-7.653584290E-1,1.056834352E1
6.248155875E0,4.574786682E0,-7.363337860E0,-9.225315857E-1,8.717710832E0
6.258114875E0,3.992048492E0,-7.008575592E0,-4.511618042E-1,8.078374216E0
6.268073875E0,3.862118683E0,-7.387288055E0,1.769320679E-1,8.337822887E0
6.278032875E0,4.192332001E0,-7.840246124E0,6.286926270E-1,8.912932251E0
6.287991875E0,4.653822327E0,-8.222251740E0,9.050180054E-1,9.491182408E0
6.297950875E0,4.935835876E0,-8.438402252E0,7.551795959E-1,9.805070351E0
6.307909875E0,4.896767120E0,-8.456963654E0,5.658233643E-1,9.788703619E0
6.317868875E0,4.429588623E0,-8.186176758E0,6.316864014E-1,9.329189300E0
6.327827875E0,4.300856323E0,-8.166567535E0,7.441026306E-1,9.259799088E0
6.337786875E0,4.787494354E0,-8.446186066E0,9.184899902E-1,9.752014413E0
6.347745875E0,5.262157288E0,-8.566236420E0,1.150956573E0,1.011906155E1
6.357704458E0,5.656886444E0,-8.570427704E0,1.494192810E0,1.037714833E1
6.367663458E0,6.099965057E0,-8.365354156E0,1.665287018E0,1.048627220E1
6.377622458E0,6.171665955E0,-7.899073792E0,1.251248016E0,1.010200223E1
6.387581458E0,5.894741821E0,-7.667355652E0,7.006929016E-1,9.696767213E0
6.397540458E0,5.608387299E0,-7.843090210E0,4.520599365E-1,9.652586716E0
6.407499458E0,5.804778900E0,-8.227490845E0,6.506968689E-1,1.009011745E1
6.417458458E0,5.203329620E0,-8.493188324E0,5.545967102E-1,9.975793931E0
6.427417458E0,5.339696045E0,-8.988358612E0,7.798782349E-1,1.048385208E1
6.437376458E0,6.170767822E0,-9.209448853E0,6.945556641E-1,1.110741785E1
6.447335458E0,6.900799713E0,-8.843160553E0,1.865121460E-1,1.121861453E1
6.457294458E0,7.090006256E0,-8.049361267E0,9.400451660E-2,1.072703325E1
6.467252458E0,7.013814697E0,-7.660170593E0,2.297721863E-1,1.038867679E1
6.477211458E0,6.366560669E0,-7.055727539E0,5.029541016E-2,9.503626439E0
6.487170458E0,6.218368835E0,-6.813531189E0,2.065704346E-2,9.224572887E0
6.497129458E0,6.678511963E0,-7.223977661E0,2.535726929E-1,9.841375635E0
6.507088458E0,6.767427063E0,-7.626490631E0,5.974076843E-1,1.021363424E1
6.517047458E0,6.724316711E0,-7.116351471E0,3.128494263E-1,9.795752562E0
6.527006458E0,7.285499725E0,-8.235723724E0,5.514532471E-1,1.100953006E1
6.536965458E0,7.318730621E0,-8.718020782E0,8.635542297E-1,1.141549080E1
6.546924458E0,7.124734039E0,-8.430319061E0,6.243516541E-1,1.105540273E1
6.556883458E0,6.332880707E0,-7.946225739E0,1.697470093E-1,1.016251424E1
6.566842458E0,5.627846832E0,-7.676636353E0,-2.022294617E-1,9.520730141E0
6.576800458E0,4.464915161E0,-7.064559174E0,-1.422042847E-1,8.358449962E0
6.586759458E0,3.259621582E0,-6.673721924E0,-5.815406799E-1,7.449958841E0
6.596718458E0,2.265987854E0,-6.846911774E0,-1.448537750E0,7.356164993E0
6.606677458E0,9.936337280E-1,-7.628586273E0,-2.107467499E0,7.976468879E0
6.616636458E0,-1.257385254E-2,-8.802295532E0,-1.877395935E0,9.000287786E0
6.626595458E0,-3.498225403E-1,-9.475445709E0,-7.310797119E-1,9.510043362E0
6.636554458E0,-3.972738647E-1,-8.960666199E0,4.553530884E-1,8.981019524E0
6.646513458E0,7.499404907E-2,-8.466992798E0,1.645827484E0,8.625794993E0
6.656472458E0,8.214916992E-1,-8.353678436E0,2.862796783E0,8.868731445E0
6.666431458E0,1.849104767E0,-8.099357300E0,3.626358948E0,9.064725938E0
6.676390458E0,3.064726868E0,-7.330406342E0,3.627257080E0,8.734094219E0
6.686349458E0,3.813619537E0,-6.359375610E0,3.323089600E0,8.125778524E0
6.696307458E0,4.683011627E0,-5.589077454E0,3.122955780E0,7.932290810E0
6.706266458E0,6.277346191E0,-5.295088806E0,2.895428925E0,8.707844126E0
6.716225458E0,8.864566040E0,-5.114264832E0,2.917732544E0,1.064187009E1
6.726184458E0,1.163515457E1,-5.156776428E0,3.022664337E0,1.308073640E1
6.736143458E0,1.329849564E1,-5.182971954E0,2.723586273E0,1.453035122E1
6.746102458E0,1.422102722E1,-5.537734222E0,2.840193787E0,1.552323472E1
6.756061458E0,1.463521591E1,-7.069947968E0,2.640359344E0,1.646648738E1
6.766020458E0,9.771679688E0,-8.570876770E0,1.492546234E0,1.308332323E1
6.775979458E0,6.283333740E0,-9.505832520E0,-4.490661621E-1,1.140363079E1
6.785938458E0,4.164489899E0,-9.139394531E0,-2.700983276E0,1.040032784E1
6.795897458E0,2.218536530E0,-8.862620087E0,-4.340374146E0,1.011468175E1
6.805855458E0,2.706970825E0,-8.806486816E0,-3.474275208E0,9.846445517E0
6.815814458E0,4.542154541E0,-9.512418823E0,-1.201401672E0,1.060946020E1
6.825773458E0,6.060297546E0,-1.030502060E1,8.812174988E-1,1.198737670E1
6.835732458E0,6.497687988E0,-1.045351181E1,2.457439728E0,1.255128951E1
6.845691458E0,6.810088348E0,-9.779463501E0,3.421884155E0,1.239856850E1
6.855650458E0,6.957831116E0,-9.477092285E0,4.075724487E0,1.244340075E1
6.865609458E0,6.217321014E0,-8.361162872E0,4.227059784E0,1.124420560E1
6.875568458E0,4.267625427E0,-8.097710724E0,4.253854065E0,1.009360293E1
6.885527458E0,3.351530457E0,-8.581205292E0,3.568728790E0,9.879557978E0
6.895486458E0,2.686463470E0,-9.327553253E0,2.607427826E0,1.005082163E1
6.905445458E0,1.996847534E0,-1.066756668E1,1.563348999E0,1.096487296E1
6.915403458E0,2.050286407E0,-1.130509094E1,1.753004608E0,1.162246879E1
6.925362458E0,2.395468597E0,-1.150163223E1,2.953807526E0,1.211407416E1
6.935321458E0,2.315834198E0,-1.167601959E1,3.408412170E0,1.238183327E1
6.945280458E0,2.570754089E0,-1.214065338E1,2.880160675E0,1.273968471E1
6.955239458E0,3.951333160E0,-1.247835114E1,1.927092590E0,1.323011590E1
6.965198458E0,4.473297729E0,-1.118848343E1,1.343156891E0,1.212421645E1
6.975157458E0,3.701802063E0,-9.527238007E0,1.656904449E0,1.035456107E1
6.985116458E0,3.355122986E0,-8.211025085E0,2.305206299E0,9.164701811E0
6.995075458E0,3.592678986E0,-7.350464630E0,2.508782959E0,8.557491718E0
7.005034458E0,3.952530670E0,-6.882238312E0,2.570604401E0,8.342404321E0
7.014993458E0,4.218228149E0,-6.743177490E0,2.725532227E0,8.407878288E0
7.024951458E0,5.115911407E0,-6.407575378E0,2.858605499E0,8.683386273E0
7.034910458E0,5.918392639E0,-6.724616089E0,3.250490570E0,9.529612895E0
7.044869458E0,6.364315338E0,-7.679779816E0,3.469784546E0,1.056044187E1
7.054828458E0,6.124813385E0,-8.735983429E0,3.528911591E0,1.123761374E1
7.064787458E0,5.385201416E0,-9.438472595E0,3.339705048E0,1.136832393E1
7.074746458E0,4.118236084E0,-9.980794830E0,3.372935944E0,1.131162370E1
7.084705458E0,3.634591827E0,-9.556127930E0,2.952909393E0,1.064187543E1
7.094664458E0,3.216511230E0,-9.660610657E0,2.717299347E0,1.053836128E1
7.104623458E0,3.641178131E0,-9.905351715E0,2.639461212E0,1.087846158E1
7.114582458E0,4.257296906E0,-9.499545593E0,2.264940033E0,1.065344530E1
7.124541458E0,4.541855164E0,-8.694220276E0,1.736538849E0,9.961600359E0
7.134499458E0,4.916226654E0,-8.737180939E0,1.435814209E0,1.012764423E1
7.144458458E0,5.339246979E0,-9.141190796E0,1.187480621E0,1.065265402E1
7.154417458E0,5.758375397E0,-9.951306152E0,9.740245056E-1,1.153846199E1
7.164376458E0,6.063590698E0,-1.094808334E1,8.382568359E-1,1.254313898E1
7.174335458E0,6.506220245E0,-1.220801331E1,1.056652679E0,1.387382448E1
7.184294458E0,7.200775909E0,-1.304237823E1,1.365610199E0,1.496060476E1
7.194253458E0,8.105793915E0,-1.185789139E1,1.327140198E0,1.442479755E1
7.204212458E0,8.873247986E0,-9.394164734E0,9.532177734E-1,1.295737184E1
7.214171458E0,8.232430573E0,-7.395520935E0,9.394464111E-1,1.110626862E1
7.224130458E0,7.273824005E0,-7.296277313E0,1.394649811E0,1.039659687E1
7.234089458E0,5.561385040E0,-9.254505157E0,1.375938721E0,1.088430414E1
7.244048458E0,4.119433594E0,-1.057969940E1,8.966354370E-1,1.138875444E1
7.254006458E0,3.549868011E0,-1.094479019E1,4.743635559E-1,1.151585933E1
7.263965458E0,2.922223206E0,-1.135778137E1,3.772155762E-1,1.173374952E1
7.273924458E0,3.357218628E0,-1.088251968E1,7.505392456E-1,1.141330192E1
7.283883458E0,3.215463409E0,-1.241997253E1,1.746717682E0,1.294781624E1
7.293842458E0,3.659889221E0,-1.180954193E1,2.060465240E0,1.253417675E1
7.303801458E0,3.395089874E0,-7.879314880E0,1.865720215E0,8.780156614E0
7.313760458E0,3.867806854E0,-6.716682587E0,2.486030273E0,8.139662238E0
7.323719458E0,4.064348145E0,-6.201753387E0,2.886597290E0,7.956953866E0
7.333678458E0,4.008663940E0,-6.195466461E0,3.198847961E0,8.042749501E0
7.343637458E0,1.944306793E0,-7.928412781E0,2.899171143E0,8.662866237E0
7.353596333E0,1.658551025E-1,-9.285191345E0,1.513951721E0,9.409268624E0
7.363555333E0,5.697152710E-1,-9.180109863E0,3.802093506E-2,9.197849650E0
7.373513333E0,1.525178375E0,-8.471034393E0,-4.026626587E-1,8.616654222E0
7.383472333E0,2.599943390E0,-8.354726257E0,-2.234852600E-1,8.752776824E0
7.393431333E0,3.087030487E0,-7.691006470E0,4.116439819E-2,8.287522685E0
7.403390333E0,4.452940063E0,-6.488257599E0,2.502795410E-1,7.873296751E0
7.413349333E0,4.755311279E0,-6.528523865E0,6.466552734E-2,8.077053352E0
7.423308333E0,4.204456787E0,-6.751260681E0,-7.520361328E-1,7.988900801E0
7.433267333E0,3.805087280E0,-7.733368378E0,-1.693129120E0,8.783527873E0
7.443226333E0,3.246299286E0,-9.563462677E0,-1.955683136E0,1.028702940E1
7.453185333E0,2.812651062E0,-1.109148514E1,-1.582209778E0,1.155142573E1
7.463144333E0,1.738035736E0,-1.290466461E1,-1.137634277E-1,1.302167728E1
7.473103333E0,5.272036743E-1,-1.458222610E1,1.294807434E0,1.464908831E1
7.483061333E0,3.802093506E-1,-1.386746246E1,1.947899323E0,1.400876105E1
7.493020333E0,-3.734733582E-1,-1.095362183E1,1.355281677E0,1.104346422E1
7.502979333E0,5.986051941E-1,-9.989476776E0,9.304650879E-1,1.005055917E1
7.512938333E0,5.978567505E-1,-9.553882599E0,2.089654541E-1,9.574851015E0
7.522897333E0,-3.338058472E-1,-1.009919861E1,-9.928852844E-1,1.015337678E1
7.532856333E0,-3.400927734E-1,-1.042162811E1,-9.187893677E-1,1.046757706E1
7.542815333E0,3.757186890E-2,-1.002016296E1,-6.018983459E-1,1.003829463E1
7.552774333E0,3.773652649E-1,-8.964857483E0,-6.239025879E-1,8.994460999E0
7.562733333E0,6.765930176E-1,-7.543862457E0,-1.059796143E-1,7.574884195E0
7.572692333E0,1.167871399E0,-6.594985657E0,6.903643799E-1,6.733079711E0
7.582651333E0,1.441801758E0,-6.428681488E0,1.567689972E0,6.772325290E0
7.592610333E0,1.045126648E0,-6.860234070E0,2.419568481E0,7.349109663E0
7.602568333E0,1.221909027E0,-7.523355103E0,3.501069489E0,8.387575408E0
7.612527333E0,1.690883789E0,-8.459658051E0,3.970343628E0,9.496764230E0
7.622486333E0,1.895508270E0,-9.330097961E0,3.015179901E0,9.986740680E0
7.632445333E0,1.874102783E0,-8.793912964E0,9.657916260E-1,9.043114503E0
7.642404333E0,1.406624908E0,-7.924670563E0,-1.213227081E0,8.139466636E0
7.652363333E0,1.272354126E0,-8.067772980E0,-3.371888123E0,8.836145958E0
7.662322333E0,1.174308014E0,-7.770790558E0,-4.834795990E0,9.227103417E0
7.672281333E0,1.350042572E0,-8.107290802E0,-5.523513794E0,9.902524109E0
7.682240333E0,1.853445740E0,-9.001082153E0,-5.317093048E0,1.061726045E1
7.692199333E0,2.197280731E0,-1.075303894E1,-3.924239502E0,1.165570868E1
7.702158333E0,2.379002838E0,-1.179996185E1,-2.136806488E0,1.222557550E1
7.712116333E0,2.674937439E0,-1.185055664E1,-8.913963318E-1,1.218136160E1
7.722075333E0,3.145409088E0,-1.133936966E1,-3.617976379E-1,1.177309645E1
7.732034333E0,3.084036713E0,-1.079599960E1,-4.793032837E-1,1.123808798E1
7.741993333E0,1.619781647E0,-1.032028885E1,-1.708996124E0,1.058549584E1
7.751952333E0,3.188369751E-2,-9.720186768E0,-3.247347107E0,1.024833209E1
7.761911333E0,-1.175355835E0,-9.502090302E0,-4.063300323E0,1.040103797E1
7.771870333E0,-1.645677795E0,-9.572144623E0,-4.001628571E0,1.050462942E1
7.781829333E0,-1.303339691E0,-9.989626465E0,-3.171604614E0,1.056174262E1
7.791788333E0,-4.894821167E-1,-9.824370117E0,-1.932032318E0,1.002449948E1
7.801747333E0,-2.656974792E-1,-9.381740570E0,-8.530760193E-1,9.424191741E0
7.811706333E0,-4.986131287E-1,-8.914861450E0,-1.489402771E-1,8.930036558E0
7.821665333E0,-1.507365417E0,-8.482410736E0,2.896476746E-1,8.620170426E0
7.831623333E0,-2.639610901E0,-8.303532715E0,1.881736908E0,8.913873179E0
7.841582333E0,-1.820663910E0,-7.888595581E0,6.063890076E0,1.011511345E1
7.851541333E0,-1.073268127E0,-6.645879822E0,4.517755280E0,8.107387732E0
7.861500333E0,2.212099915E0,-5.751190338E0,3.535647583E-1,6.172081041E0
7.871459333E0,5.726192322E0,-7.018305359E0,-2.134860535E0,9.306101123E0
7.881418333E0,6.244414673E0,-7.489525452E0,-2.928959198E0,1.018157690E1
7.891377333E0,5.297783203E0,-7.289691010E0,-5.367837524E-1,9.027415947E0
7.901336333E0,3.714375916E0,-6.326444092E0,7.337741089E-1,7.372849363E0
7.911295333E0,1.776954803E0,-7.169640656E0,7.042854309E-1,7.420062902E0
7.921254333E0,8.066725159E-1,-7.028035126E0,-2.776725769E-1,7.079625720E0
7.931213333E0,1.137035522E0,-8.559799805E0,-7.324269104E-1,8.665995134E0
7.941171333E0,3.955524445E0,-9.099277954E0,4.843927002E-1,9.933663433E0
7.951130333E0,7.221432953E0,-7.907456360E0,2.609673157E0,1.102213019E1
7.961089333E0,6.721622314E0,-7.094047852E0,2.259850616E0,1.003058554E1
7.971048333E0,4.132905579E0,-7.457042999E0,-6.251000977E-1,8.548634332E0
7.981007333E0,2.274520111E0,-7.626041565E0,-1.995200958E0,8.204314630E0
7.990966333E0,9.589059448E-1,-8.755293274E0,-1.237776031E0,8.894197571E0
8.000925333E0,-2.209106140E0,-1.020622604E1,-1.450334015E0,1.054280175E1
8.010884333E0,-4.943919067E0,-1.065229843E1,-2.498753815E0,1.200656355E1
8.020843333E0,-6.020330658E0,-1.091485245E1,-3.079845428E0,1.283993119E1
8.030802333E0,-4.569996643E0,-1.086186264E1,-2.357148285E0,1.201753208E1
8.040761333E0,-1.447489929E-1,-8.915460205E0,-1.398541718E0,9.025646895E0
8.050720333E0,4.230203247E0,-6.893165588E0,-2.939886475E-1,8.093008135E0
8.060678333E0,5.666765900E0,-6.594386902E0,9.279203796E-1,8.744095757E0
8.070637333E0,5.667963409E0,-7.437433777E0,1.666334839E0,9.498310491E0
8.080596333E0,3.415597229E0,-8.731941833E0,9.490264893E-1,9.424105469E0
8.090555333E0,3.950285339E-1,-1.135688324E1,-9.388476562E-1,1.140246813E1
8.100514333E0,-1.464404755E0,-1.485585709E1,-2.949167175E0,1.521639110E1
8.110473333E0,-1.511706390E0,-1.683998108E1,-4.298161926E0,1.744546975E1
8.120432333E0,1.503922577E0,-1.567405563E1,-3.742667084E0,1.618472613E1
8.130391333E0,3.823498993E0,-1.208960953E1,-2.400707703E0,1.290508429E1
8.140350333E0,4.515360260E0,-1.027238846E1,-6.304888916E-1,1.123868138E1
8.150309333E0,5.231920166E0,-9.701625366E0,9.677375793E-1,1.106485605E1
8.160268333E0,4.265679474E0,-9.889185333E0,1.999691620E0,1.095403006E1
8.170227333E0,3.507506104E0,-9.261091461E0,2.212249603E0,1.014714060E1
8.180186333E0,2.270179138E0,-8.960067444E0,6.917115784E-1,9.269033759E0
8.190144333E0,8.479866028E-1,-9.646090851E0,-9.349557495E-1,9.728324225E0
8.200103333E0,9.580078125E-2,-1.007839188E1,-7.289840698E-2,1.007911081E1
8.210062333E0,-1.032852173E-2,-9.950108643E0,1.244811401E0,1.002767790E1
8.220021333E0,3.483256531E-1,-9.758207703E0,1.561702423E0,9.888521770E0
8.229980333E0,5.951623535E-1,-9.633067932E0,1.363813934E0,9.747317808E0
8.239939333E0,2.863545227E-1,-9.718689880E0,1.092727661E0,9.784119053E0
8.249898333E0,-1.642085266E-1,-1.005608826E1,8.108638000E-1,1.009006321E1
8.259857333E0,1.588197327E-1,-9.999655609E0,8.098159790E-1,1.003365028E1
8.269816333E0,1.187031555E0,-1.003228775E1,1.001866608E0,1.015182634E1
8.279775333E0,1.855541382E0,-1.010982651E1,1.468895416E0,1.038312475E1
8.289734333E0,2.223176880E0,-1.011027557E1,1.216819611E0,1.042309156E1
8.299693333E0,1.756148071E0,-1.056368271E1,9.461824036E-1,1.075038183E1
8.309651333E0,1.034199371E0,-1.139924515E1,7.997868347E-1,1.147397129E1
8.319610333E0,9.096583557E-1,-1.204230789E1,2.920426941E-1,1.208014680E1
8.329569333E0,1.241368561E0,-1.120105728E1,3.656895447E-1,1.127556690E1
8.339528333E0,9.970765686E-1,-1.052955368E1,1.059347076E0,1.062957566E1
8.349487333E0,1.131347351E0,-1.043435165E1,1.040935364E0,1.054699899E1
8.359445958E0,1.314266968E0,-1.058643539E1,3.826043701E-1,1.067456314E1
8.369404958E0,1.204844513E0,-1.020053787E1,-5.974076843E-1,1.028880552E1
8.379363958E0,7.084767151E-1,-9.748028870E0,-1.129251709E0,9.838760873E0
8.389322958E0,5.912704468E-1,-9.531878357E0,-1.338366852E0,9.643522779E0
8.399281958E0,1.258133698E0,-9.295968933E0,-1.263522491E0,9.465433318E0
8.409240958E0,2.093845825E0,-9.216933289E0,-1.070873108E0,9.512245728E0
8.419199958E0,2.611918488E0,-9.041498108E0,-9.544152832E-1,9.459477510E0
8.429158958E0,2.887944489E0,-8.847202148E0,-2.760260010E-1,9.310714236E0
8.439117958E0,3.403173065E0,-8.873996429E0,7.387138367E-1,9.532843105E0
8.449075958E0,3.833378448E0,-8.863069153E0,1.718725891E0,9.808302800E0
8.459034958E0,3.753744049E0,-9.004524994E0,2.568808136E0,1.008815345E1
8.468993958E0,3.115022278E0,-9.293124847E0,2.724035339E0,1.017280206E1
8.478952958E0,1.744921417E0,-9.888736267E0,2.324815521E0,1.030711516E1
8.488911958E0,-3.757186890E-1,-1.082009949E1,1.754351807E0,1.096783788E1
8.498870958E0,-1.966909790E0,-1.141122025E1,1.311422882E0,1.165351928E1
8.508829958E0,-1.947001190E0,-1.152962402E1,5.568420410E-1,1.170611451E1
8.518788958E0,-9.238787842E-1,-1.146331192E1,-1.152603149E-2,1.150048717E1
8.528747958E0,-2.655477905E-1,-1.169607788E1,-3.948788452E-1,1.170575426E1
8.538706958E0,-1.055305481E-1,-1.185115540E1,-9.092092896E-1,1.188644953E1
8.548665958E0,-4.206253052E-1,-1.183843185E1,-1.405577087E0,1.192900002E1
8.558624958E0,-9.656419373E-1,-1.146435974E1,-1.893861694E0,1.165979077E1
8.568583958E0,-8.982820129E-1,-1.069870193E1,-2.069745941E0,1.093402862E1
8.578542958E0,-3.622467041E-1,-1.011910721E1,-1.951641541E0,1.031195704E1
8.588500958E0,1.261875916E-1,-9.788893890E0,-1.403331757E0,9.889777901E0
8.598459958E0,5.436694336E-1,-9.332792358E0,-8.580157471E-1,9.387906086E0
8.608418958E0,8.752299500E-1,-8.977431335E0,-5.034031677E-1,9.034030972E0
8.618377958E0,1.075513458E0,-8.596922607E0,-4.429289246E-1,8.675251786E0
8.628336958E0,1.063238983E0,-8.639583893E0,-1.094673615E0,8.773323048E0
8.638295958E0,1.841770020E0,-8.652307434E0,-2.074685669E0,9.086190696E0
8.648254958E0,2.346969452E0,-9.069789276E0,-2.787353668E0,9.774389167E0
8.658213958E0,2.914589081E0,-9.551936646E0,-2.732268219E0,1.035372459E1
8.668172958E0,2.387086029E0,-1.035860916E1,-2.050585785E0,1.082607341E1
8.678131958E0,1.670077057E0,-1.071726334E1,-7.180567932E-1,1.087034941E1
8.688090958E0,1.874851227E0,-1.048554520E1,6.533912659E-1,1.067186232E1
8.698049958E0,1.794618073E0,-1.011341904E1,7.369175720E-1,1.029781269E1
8.708008958E0,2.460134125E0,-9.486971741E0,3.626957703E-1,9.807468631E0
8.717967958E0,2.533032532E0,-9.461524658E0,-2.270777893E-1,9.797360205E0
8.727925958E0,2.233355713E0,-9.282796326E0,-9.000782776E-1,9.590011797E0
8.737884958E0,2.109114075E0,-9.069340210E0,-1.627864838E0,9.452578376E0
8.747843958E0,2.035317535E0,-8.807684326E0,-2.168989563E0,9.296361459E0
8.757802958E0,1.934726715E0,-8.617729340E0,-2.351310425E0,9.139862534E0
8.767761958E0,1.577868805E0,-8.910520477E0,-2.054328003E0,9.279402388E0
8.777720958E0,1.205892334E0,-9.299561462E0,-1.475182343E0,9.492743684E0
8.787679958E0,1.192719727E0,-9.437424774E0,-7.128176880E-1,9.539165360E0
8.797638958E0,1.267115021E0,-9.379944305E0,-2.094145203E-1,9.467459537E0
8.807597958E0,1.623374176E0,-8.849447479E0,-1.142124939E-1,8.997839124E0
8.817556958E0,1.999990997E0,-8.441994781E0,-1.669029236E-1,8.677274714E0
8.827515958E0,2.374063110E0,-8.211923218E0,-6.065386963E-1,8.569699398E0
8.837474958E0,1.927990723E0,-8.323291626E0,-1.183738403E0,8.625286565E0
8.847433958E0,1.006506958E0,-8.873697052E0,-1.464105377E0,9.049815478E0
8.857392958E0,6.146218872E-1,-9.491462402E0,-1.578317871E0,9.641405805E0
8.867351958E0,1.322350159E0,-9.553583221E0,-1.458417206E0,9.754308948E0
8.877310958E0,1.688488770E0,-9.591903534E0,-1.159488831E0,9.808160994E0
8.887268958E0,1.373693390E0,-1.027583130E1,-1.103205872E0,1.042577602E1
8.897227958E0,1.370849304E0,-1.044512924E1,-9.422904968E-1,1.057676057E1
8.907186958E0,9.464817810E-1,-1.069016968E1,-1.171613617E0,1.079575074E1
8.917145958E0,7.575746155E-1,-1.048329987E1,-1.268761597E0,1.058693777E1
8.927104958E0,1.016386414E0,-1.036130356E1,-1.204395447E0,1.048046856E1
8.937063958E0,1.584604797E0,-9.875114594E0,-1.468895416E0,1.010873456E1
8.947022958E0,1.584305420E0,-9.389524384E0,-1.862277374E0,9.702642363E0
8.956981958E0,1.911524963E0,-8.872798920E0,-2.027533722E0,9.300074266E0
8.966940958E0,1.983824615E0,-8.409662018E0,-1.805994415E0,8.827207440E0
8.976899958E0,1.674717407E0,-8.648116150E0,-1.539249115E0,8.942252466E0
8.986858958E0,1.697021027E0,-8.984317017E0,-1.344354401E0,9.241489132E0
8.996817958E0,1.619332581E0,-9.201814728E0,-1.144819336E0,9.413088951E0
9.006776958E0,1.097966766E0,-9.803264008E0,-1.146016846E0,9.930904835E0
9.016735958E0,9.256750488E-1,-9.554631042E0,-9.153465271E-1,9.642909723E0
9.026694958E0,3.823049927E-1,-9.642947388E0,-4.799020386E-1,9.662447795E0
9.036653958E0,6.197113037E-2,-9.910740509E0,-2.402503967E-1,9.913845778E0
9.046611958E0,8.831634521E-1,-9.426497498E0,-2.616558838E-1,9.471393591E0
9.056570958E0,1.739083557E0,-9.680818634E0,-5.972579956E-1,9.853901672E0
9.066529958E0,1.991309052E0,-1.064496368E1,-1.066681824E0,1.088202066E1
9.076488958E0,2.298919373E0,-1.096185471E1,-1.480870514E0,1.129779918E1
9.086447958E0,2.390229492E0,-1.049542465E1,-1.225501556E0,1.083369696E1
9.096406958E0,3.324287109E0,-9.083111572E0,-8.535250854E-1,9.709907605E0
9.106365958E0,4.556973724E0,-7.509883118E0,-5.541476440E-1,8.801785817E0
9.116324958E0,2.743943939E0,-8.352929993E0,-7.854167175E-1,8.827091663E0
9.126283958E0,1.075663147E0,-9.153914337E0,-1.338815918E0,9.313625876E0
9.136242958E0,5.870791626E-1,-9.895771637E0,-1.466949463E0,1.002112264E1
9.146201958E0,7.349716187E-1,-1.080078964E1,-1.453028412E0,1.092284449E1
9.156160958E0,1.618135071E0,-1.079929276E1,-1.082249451E0,1.097334721E1
9.166119958E0,2.209106140E0,-1.006012985E1,-1.924996948E-1,1.030162214E1
9.176078958E0,2.704575806E0,-9.317524109E0,3.908372498E-1,9.709981440E0
9.186037958E0,3.250490570E0,-8.882229309E0,1.164727936E0,9.529757479E0
9.195996958E0,2.941233673E0,-9.144034882E0,8.156538391E-1,9.639995883E0
9.205954958E0,2.362686768E0,-9.422904968E0,-4.011657715E-2,9.714681474E0
9.215913958E0,2.072590027E0,-9.321116638E0,-7.397616577E-1,9.577373967E0
9.225872958E0,1.972298584E0,-9.237889709E0,-1.375190277E0,9.545664790E0
9.235831958E0,1.839824066E0,-9.086853790E0,-1.897753601E0,9.463473629E0
9.245790958E0,1.493444366E0,-9.220076752E0,-2.306553497E0,9.620830547E0
9.255749958E0,1.372944946E0,-9.355395355E0,-2.264191589E0,9.722909216E0
9.265708958E0,1.159339142E0,-9.506880341E0,-1.887874146E0,9.761603856E0
9.275667958E0,1.171164551E0,-9.466165009E0,-1.566642151E0,9.666140595E0
9.285626958E0,1.558558960E0,-9.665849762E0,-1.397493896E0,9.889931589E0
9.295585958E0,2.156565399E0,-9.696086884E0,-1.165177002E0,1.000112557E1
9.305544958E0,2.200873260E0,-9.533674622E0,-8.785231018E-1,9.823777163E0
9.315503958E0,1.852996674E0,-9.473200378E0,-4.450245667E-1,9.662979300E0
9.325462958E0,1.933529205E0,-9.164242859E0,3.266207886E-1,9.371689469E0
9.335421958E0,2.057621155E0,-9.089997253E0,1.087787933E0,9.383237047E0
9.345380958E0,1.594184875E0,-9.487420807E0,9.846524048E-1,9.670683499E0
9.355339708E0,1.389261017E0,-9.621092834E0,1.466949463E-1,9.721985029E0
9.365298708E0,1.349144440E0,-9.721983032E0,-1.066382446E0,9.872908200E0
9.375256708E0,1.399888916E0,-9.812694397E0,-2.106868744E0,1.013348687E1
9.385215708E0,1.840871887E0,-9.569450226E0,-2.265987854E0,1.000489320E1
9.395174708E0,1.560953979E0,-9.485025787E0,-2.275118866E0,9.878180873E0
9.405133708E0,1.028062134E0,-9.394913177E0,-2.052831116E0,9.671371203E0
9.415092708E0,1.011596375E0,-9.050479431E0,-1.481169891E0,9.226503639E0
9.425051708E0,9.880952454E-1,-8.818312225E0,-1.094523926E0,8.940746353E0
9.435010708E0,9.198371887E-1,-9.113498383E0,-9.681866455E-1,9.210827249E0
9.444969708E0,1.488354950E0,-9.441466370E0,-8.030799866E-1,9.591737336E0
9.454928708E0,1.495090942E0,-9.762249298E0,-8.538244629E-1,9.912912009E0
9.464887708E0,7.708969116E-1,-1.009261230E1,-1.186582489E0,1.019132392E1
9.474846708E0,6.746470642E-1,-1.003348526E1,-1.019529877E0,1.010769095E1
9.484805708E0,1.108594666E0,-9.882599030E0,-3.300636292E-1,9.950059684E0
9.494764708E0,1.440155182E0,-9.789342957E0,1.913021851E-1,9.896558947E0
9.504723708E0,1.753753052E0,-9.680818634E0,4.041595459E-2,9.838472068E0
9.514682708E0,1.592388611E0,-9.573342133E0,-6.900650024E-1,9.729376690E0
9.524640708E0,1.202299805E0,-9.705217896E0,-1.317859497E0,9.867802839E0
9.534599708E0,9.749226379E-1,-9.794731750E0,-1.274000702E0,9.925236622E0
9.544558708E0,1.041085052E0,-9.834099884E0,-1.364562378E0,9.982755586E0
9.554517708E0,1.203497314E0,-9.981842651E0,-1.251248016E0,1.013169335E1
9.564476708E0,1.681004333E0,-1.050769913E1,-1.062041473E0,1.069417826E1
9.574435708E0,2.898871765E0,-9.876012726E0,-9.617500305E-1,1.033750686E1
9.584394708E0,3.232677612E0,-9.121581573E0,-1.160386963E0,9.746791926E0
9.594353708E0,2.711461487E0,-9.124275970E0,-1.074615326E0,9.579104002E0
9.604312708E0,2.451901245E0,-9.311536560E0,-5.655239868E-1,9.645535247E0
9.614271708E0,2.155667267E0,-9.835147705E0,-2.986289978E-1,1.007304378E1
9.624230708E0,1.832938385E0,-1.016940262E1,-2.562670898E-1,1.033644453E1
9.634189708E0,1.637893982E0,-1.028481262E1,-6.536906433E-1,1.043491154E1
9.644148708E0,1.819167023E0,-1.006177643E1,-1.118923187E0,1.028594685E1
9.654107708E0,1.999242554E0,-9.682914276E0,-1.358874207E0,9.980097133E0
9.664066708E0,2.039658508E0,-9.130712585E0,-1.274150391E0,9.442117261E0
9.674024708E0,2.078876953E0,-8.982520752E0,-9.833052063E-1,9.272232610E0
9.683983708E0,2.034868469E0,-9.002429352E0,-5.530998230E-1,9.246098817E0
9.693942708E0,1.759590912E0,-9.119635620E0,-2.784210205E-1,9.292009055E0
9.703901708E0,1.717229004E0,-9.295220490E0,-4.553530884E-1,9.463474300E0
9.713860708E0,1.589394836E0,-9.660610657E0,-6.584806824E-1,9.812602663E0
9.723819708E0,1.649270325E0,-9.920470276E0,-8.821156311E-1,1.009524398E1
9.733778708E0,1.845063171E0,-9.898615723E0,-1.282532959E0,1.015045527E1
9.743737708E0,2.125130768E0,-9.531878357E0,-1.588646393E0,9.894275272E0
9.753696708E0,2.143093414E0,-9.242829437E0,-1.550176392E0,9.613833379E0
9.763655708E0,1.950893097E0,-9.153914337E0,-1.348246307E0,9.456103832E0
9.773614708E0,1.796264648E0,-9.378746796E0,-1.020128632E0,9.603547291E0
9.783573708E0,1.615141296E0,-9.851763153E0,-7.732919312E-1,1.001318626E1
9.793532708E0,1.889071655E0,-9.803713074E0,-8.066725159E-1,1.001659135E1
9.803491708E0,2.278262329E0,-9.794582062E0,-9.904902649E-1,1.010472107E1
9.813449708E0,2.191592560E0,-9.919123077E0,-1.438358917E0,1.025967626E1
9.823408708E0,1.913919983E0,-9.909842377E0,-1.871558075E0,1.026502778E1
9.833367708E0,1.569935303E0,-9.787846069E0,-1.756896515E0,1.006743825E1
9.843326708E0,1.159039764E0,-9.726324005E0,-1.187630310E0,9.866874763E0
9.853285708E0,8.493338013E-1,-9.532028046E0,-6.219566345E-1,9.589982097E0
9.863244708E0,1.292861481E0,-9.265432434E0,5.149291992E-2,9.355339680E0
9.873203708E0,1.899998932E0,-9.239536285E0,2.080673218E-1,9.435163948E0
9.883162708E0,2.140848083E0,-9.441017303E0,-2.565664673E-1,9.684103706E0
9.893121708E0,1.890119476E0,-9.640103302E0,-8.863069153E-1,9.863553277E0
9.903080708E0,1.623374176E0,-9.918674011E0,-1.391656036E0,1.014653361E1
9.913039708E0,1.283281403E0,-1.010294083E1,-1.511407013E0,1.029565810E1
9.922998708E0,1.183289337E0,-9.992769928E0,-1.540746002E0,1.017985868E1
9.932957708E0,1.236877899E0,-9.549691315E0,-1.496288452E0,9.745016689E0
9.942916708E0,1.539997559E0,-8.899144135E0,-1.424437866E0,9.143051025E0
9.952874708E0,1.704804840E0,-8.856482849E0,-1.343306580E0,9.118559128E0
9.962833708E0,1.903441772E0,-9.192234650E0,-1.245410156E0,9.469493909E0
9.972792708E0,2.069296875E0,-9.505233765E0,-1.059197388E0,9.785364458E0
9.982751708E0,1.644330597E0,-1.005713608E1,-1.070124664E0,1.024670562E1
9.992710708E0,1.651665344E0,-1.003692810E1,-1.172811127E0,1.023930711E1
1.000266971E1,2.239343262E0,-9.521849213E0,-1.169218597E0,9.851260975E0
1.001262871E1,1.784139862E0,-9.221124573E0,-1.477727051E0,9.507679563E0
1.002258771E1,1.454674988E0,-9.154962158E0,-1.592538300E0,9.405614795E0
1.003254671E1,2.225571899E0,-9.022936707E0,-8.948391724E-1,9.336342658E0
1.004250571E1,2.178719330E0,-9.279652863E0,-3.285667419E-1,9.537648100E0
1.005246471E1,1.738484802E0,-9.905202026E0,-5.539979553E-1,1.007185536E1
1.006242371E1,1.962868195E0,-1.023870850E1,-8.551716614E-1,1.046017790E1
1.007238271E1,2.099683685E0,-1.028945297E1,-1.250798950E0,1.057572750E1
1.008234171E1,1.877246246E0,-1.009291168E1,-1.696721649E0,1.040527674E1
1.009230071E1,9.958790588E-1,-9.822573853E0,-2.322570190E0,1.014243878E1
1.010225871E1,2.215393066E-2,-9.645342407E0,-2.594255219E0,9.988157042E0
1.011221771E1,3.885919189E-1,-9.268725586E0,-1.964664459E0,9.482625380E0
1.012217671E1,1.238225098E0,-9.206305389E0,-5.930667114E-1,9.308114118E0
1.013213571E1,1.019529877E0,-9.457483063E0,9.610015869E-2,9.512763126E0
1.014209471E1,1.725012817E0,-9.658814392E0,5.284011841E-2,9.811786624E0
1.015205371E1,1.906734924E0,-9.458530884E0,-7.629634094E-1,9.678923376E0
1.016201271E1,2.397564240E0,-9.400002594E0,-1.854343872E0,9.876586164E0
1.017197171E1,3.083288269E0,-9.299411774E0,-2.542013855E0,1.012163822E1
1.018193071E1,2.917882233E0,-8.961414642E0,-2.816542969E0,9.836356206E0
1.019188971E1,1.672621765E0,-9.178313599E0,-2.667602692E0,9.703360665E0
1.020184871E1,9.069639587E-1,-9.303453369E0,-1.919907532E0,9.542686893E0
1.021180771E1,1.022823029E0,-9.219477997E0,-8.581654358E-1,9.315652924E0
1.022176671E1,1.009201355E0,-9.497300262E0,-6.122268677E-2,9.550965808E0
1.023172571E1,9.668394470E-1,-9.990374908E0,1.459465027E-1,1.003811086E1
1.024168371E1,1.690734100E0,-9.976753235E0,-2.347119141E-1,1.012172301E1
1.025164271E1,2.528092804E0,-9.704319763E0,-7.000941467E-1,1.005262190E1
1.026160171E1,2.988235931E0,-9.407936096E0,-1.012045441E0,9.922855010E0
1.027156071E1,3.302282867E0,-9.181606750E0,-7.731422424E-1,9.787988741E0
1.028151971E1,3.165018311E0,-9.217532043E0,-5.295986938E-1,9.760159458E0
1.029147871E1,2.205064545E0,-9.628427582E0,-3.454815674E-1,9.883738405E0
1.030143771E1,1.081351318E0,-1.014335678E1,-1.429527283E-1,1.020183527E1
1.031139671E1,6.777905273E-1,-1.027942383E1,-4.534071350E-1,1.031171820E1
1.032135571E1,8.653504944E-1,-9.961484985E0,-1.064137115E0,1.005546629E1
1.033131471E1,1.359323273E0,-9.633666687E0,-1.465452576E0,9.838843674E0
1.034127371E1,1.744472351E0,-9.486822052E0,-1.539099426E0,9.767896574E0
1.035123271E1,2.043400726E0,-9.364975433E0,-1.359922028E0,9.681303596E0
1.036119171E1,2.273921356E0,-9.461973724E0,-1.008003845E0,9.783441973E0
1.037115071E1,2.236648865E0,-9.625882874E0,-6.854246521E-1,9.906060074E0
1.038110871E1,2.402354279E0,-9.754615173E0,-5.270539856E-1,1.005990105E1
1.039106771E1,2.051783295E0,-9.932295685E0,-9.313632202E-1,1.018468211E1
1.040102671E1,1.411265259E0,-1.004366409E1,-1.618584137E0,1.027067051E1
1.041098571E1,1.437311096E0,-9.560169525E0,-2.261796570E0,9.928666993E0
1.042094471E1,2.044149170E0,-8.878936157E0,-2.368973694E0,9.414143056E0
1.043090371E1,2.469564514E0,-8.945397949E0,-2.008972321E0,9.494991477E0
1.044086271E1,2.163002014E0,-9.394613800E0,-1.731898499E0,9.794734227E0
1.045082171E1,1.989961853E0,-9.488169250E0,-1.369651794E0,9.790875852E0
1.046078071E1,1.872156830E0,-9.347461853E0,-1.100212097E0,9.596378533E0
1.047073971E1,1.501527557E0,-9.353748779E0,-1.005159760E0,9.526675568E0
1.048069871E1,9.668394470E-1,-9.513167267E0,-9.792636108E-1,9.612184309E0
1.049065771E1,7.433541870E-1,-9.736053772E0,-9.144483948E-1,9.807116516E0
1.050061671E1,8.147557068E-1,-1.004246658E1,-7.351213074E-1,1.010224556E1
1.051057571E1,1.064735870E0,-1.007749374E1,-6.294410706E-1,1.015311473E1
1.052053471E1,1.807191925E0,-9.737700348E0,-5.896238708E-1,9.921512336E0
1.053049271E1,2.274819489E0,-9.447453918E0,-9.075627136E-1,9.759757135E0
1.054045171E1,2.239193573E0,-9.548942871E0,-1.115480347E0,9.871200242E0
1.055041071E1,2.390977936E0,-9.567354584E0,-1.113534393E0,9.924263603E0
1.056036971E1,1.903890839E0,-9.527537384E0,-1.229842529E0,9.793430532E0
1.057032871E1,1.316212921E0,-9.266480255E0,-1.272803192E0,9.445639245E0
1.058028771E1,1.477727051E0,-8.810528412E0,-1.170865173E0,9.009995194E0
1.059024671E1,1.087338867E0,-9.091494141E0,-1.082249451E0,9.220023611E0
1.060020571E1,1.009201355E0,-9.633666687E0,-1.094523926E0,9.748025638E0
1.061016471E1,1.652413788E0,-9.715546417E0,-1.185235291E0,9.926081614E0
1.062012371E1,2.251468048E0,-9.842931519E0,-1.187480621E0,1.016673593E1
1.063008271E1,2.601440277E0,-9.933493195E0,-1.175505524E0,1.033554990E1
1.064004171E1,2.546055450E0,-9.939031677E0,-1.279389496E0,1.033941906E1
1.065000071E1,2.371069336E0,-1.005339386E1,-1.272803192E0,1.040734000E1
1.065995971E1,2.234403534E0,-1.005025040E1,-1.100062408E0,1.035423727E1
1.066991871E1,2.313738556E0,-9.665999451E0,-1.054257660E0,9.994818192E0
1.067987671E1,1.926793213E0,-9.504934387E0,-1.252295837E0,9.778780837E0
1.068983571E1,1.556163940E0,-9.467512207E0,-1.353934479E0,9.689611559E0
1.069979471E1,1.659449158E0,-9.268426208E0,-1.496737518E0,9.534029530E0
1.070975371E1,1.537153473E0,-9.373358002E0,-1.466201019E0,9.611057510E0
1.071971271E1,1.573976898E0,-9.677226105E0,-1.061742096E0,9.861714082E0
1.072967171E1,1.913470917E0,-9.762398987E0,-7.679031372E-1,9.977749253E0
1.073963071E1,1.838925934E0,-9.556876373E0,-8.211923218E-1,9.766774874E0
1.074958971E1,1.644330597E0,-9.501341858E0,-8.945397949E-1,9.683982737E0
1.075954871E1,1.513352966E0,-9.514364777E0,-1.010847931E0,9.686856448E0
1.076950771E1,1.603914642E0,-9.126670990E0,-1.263522491E0,9.352280718E0
1.077946671E1,1.456770630E0,-9.050928497E0,-1.369352417E0,9.269121500E0
1.078942571E1,1.325942688E0,-9.192983093E0,-1.362017670E0,9.387446634E0
1.079938471E1,2.218536530E0,-8.942853241E0,-1.033301239E0,9.271690238E0
1.080934371E1,2.301015015E0,-9.280700684E0,-9.951306152E-1,9.613342822E0
1.081930171E1,1.736987915E0,-9.520352325E0,-1.667831726E0,9.820178109E0
1.082926071E1,2.016456757E0,-9.626032562E0,-1.693428497E0,9.979694425E0
1.083921971E1,1.938768311E0,-9.557325439E0,-1.614542542E0,9.884737717E0
1.084917871E1,1.364562378E0,-9.885443115E0,-1.743873596E0,1.013040528E1
1.085913771E1,1.179696808E0,-9.993518372E0,-1.545685730E0,1.018092522E1
1.086909671E1,1.044378204E0,-9.875713348E0,-1.428928528E0,1.003305919E1
1.087905571E1,1.319356384E0,-9.630972290E0,-1.213975525E0,9.796431243E0
1.088901471E1,1.735191650E0,-9.586963806E0,-8.520281982E-1,9.779913964E0
1.089897371E1,1.976340179E0,-9.687704315E0,-5.375321960E-1,9.901842064E0
1.090893271E1,2.374811554E0,-9.614207153E0,-2.758763123E-1,9.907008471E0
1.091889171E1,2.645598450E0,-9.465117188E0,-3.580554199E-1,9.834421092E0
1.092885071E1,2.447410583E0,-9.491013336E0,-8.526269531E-1,9.838502195E0
1.093880971E1,1.516047363E0,-9.721683655E0,-1.355131989E0,9.932065012E0
1.094876871E1,1.160386963E0,-9.684261475E0,-1.171164551E0,9.823596318E0
1.095872771E1,1.221909027E0,-9.336684265E0,-8.482859802E-1,9.454434084E0
1.096868571E1,1.405128021E0,-9.235045624E0,-7.063810730E-1,9.368000141E0
1.097864471E1,1.728156281E0,-9.065298615E0,-9.400451660E-1,9.276305731E0
1.098860371E1,1.973346405E0,-9.243727570E0,-1.224154358E0,9.530957418E0
1.099856271E1,2.467768250E0,-9.397308197E0,-1.352886658E0,9.809667874E0
1.100852171E1,2.553988953E0,-9.299711151E0,-1.700912933E0,9.792884757E0
1.101848071E1,2.436483307E0,-9.026978302E0,-1.900447998E0,9.541199650E0
1.102843971E1,1.978884888E0,-8.814270630E0,-1.798060913E0,9.210883518E0
1.103839871E1,1.436263275E0,-8.698860626E0,-1.579515381E0,8.957002692E0
1.104835771E1,9.138496399E-1,-9.336085510E0,-1.365610199E0,9.479583590E0
1.105831671E1,6.825805664E-1,-1.004755600E1,-1.217568054E0,1.014405095E1
1.106827571E1,9.719288635E-1,-1.013572266E1,-1.094374237E0,1.024085809E1
1.107823471E1,1.243763580E0,-1.010189301E1,-1.085841980E0,1.023592902E1
1.108819371E1,1.527423706E0,-9.849667511E0,-1.224753113E0,1.004235995E1
1.109815271E1,1.633253632E0,-9.669442291E0,-1.104403381E0,9.868401009E0
1.110811071E1,1.832339630E0,-9.599238281E0,-8.508306885E-1,9.809523789E0
1.111806971E1,2.293979645E0,-9.561666412E0,-5.779481506E-1,9.849966054E0
1.112802871E1,2.600542145E0,-9.845476227E0,-3.890409851E-1,1.019056301E1
1.113798771E1,2.656226349E0,-1.022358994E1,-1.965412903E-1,1.056484539E1
1.114794671E1,2.125729523E0,-1.068777466E1,-4.113446045E-1,1.090488228E1
1.115790571E1,1.763183441E0,-9.942624207E0,-6.547384644E-1,1.011895619E1
1.116786471E1,1.822460175E0,-8.774902496E0,-9.006770325E-1,9.007302261E0
1.117782371E1,2.721640320E0,-8.116870880E0,-1.350341949E0,8.666853079E0
1.118778271E1,3.262465668E0,-8.399034119E0,-1.337169342E0,9.109087672E0
1.119774171E1,3.053500214E0,-9.319919128E0,-6.173162842E-1,9.826791720E0
1.120770071E1,2.159708862E0,-1.072789124E1,-1.471440125E-1,1.094411459E1
1.121765971E1,2.070344696E0,-1.054931259E1,1.175056458E-1,1.075119207E1
1.122761871E1,2.522554321E0,-9.896669769E0,8.711883545E-2,1.021346868E1
1.123757771E1,5.663173370E0,-7.037764893E0,2.517764282E-1,9.036872173E0
1.124753671E1,4.370611267E0,-8.124205627E0,1.160985718E0,9.298002353E0
1.125749471E1,1.989961853E0,-1.022852966E1,8.743318176E-1,1.045692227E1
1.126745371E1,1.271905060E0,-1.098655334E1,-9.954299927E-2,1.106038000E1
1.127741271E1,7.713459778E-1,-1.091365494E1,-1.437610474E0,1.103492468E1
1.128737171E1,6.189628601E-1,-1.042342438E1,-2.806962891E0,1.081248960E1
1.129733071E1,7.791297913E-1,-8.920699310E0,-2.732567596E0,9.362309816E0
1.130728971E1,5.595364380E-1,-8.932824097E0,-2.449057159E0,9.279348487E0
1.131724871E1,9.394464111E-1,-9.515861664E0,-2.393672333E0,9.857172516E0
1.132720771E1,2.013313293E0,-9.233698425E0,-2.065704346E0,9.673766147E0
1.133716671E1,3.270848236E0,-9.091494141E0,-1.564995575E0,9.787896865E0
1.134712571E1,3.673959961E0,-9.461374969E0,-9.225315857E-1,1.019149953E1
1.135708433E1,2.772534485E0,-1.015772690E1,-9.238787842E-1,1.056976420E1
1.136704333E1,1.832788696E0,-1.014290771E1,-9.821076965E-1,1.035385082E1
1.137700233E1,1.402283936E0,-9.792336731E0,-1.008452911E0,9.943502208E0
1.138696133E1,1.172960815E0,-9.866881714E0,-1.090182953E0,9.995983729E0
1.139692033E1,1.584155731E0,-9.949360199E0,-1.028211823E0,1.012702016E1
1.140687933E1,2.451751556E0,-9.610315247E0,-9.506730652E-1,9.963584903E0
1.141683733E1,2.427202606E0,-9.430988159E0,-9.487271118E-1,9.784422992E0
1.142679633E1,2.070494385E0,-9.313931580E0,-1.001716919E0,9.593732603E0
1.143675533E1,2.154619446E0,-8.962761841E0,-8.578660583E-1,9.257938158E0
1.144671433E1,2.085762634E0,-8.917256470E0,-7.680528259E-1,9.190091069E0
1.145667333E1,2.131567383E0,-9.118887177E0,-5.180726624E-1,9.379023517E0
1.146663233E1,2.441722412E0,-9.227112122E0,-1.407073975E-1,9.545753245E0
1.147659133E1,2.124232635E0,-9.467212830E0,1.425036621E-1,9.703648301E0
1.148655033E1,2.066452789E0,-9.455088043E0,9.804611206E-2,9.678766971E0
1.149650933E1,2.506088562E0,-9.358389130E0,-8.786727905E-2,9.688531759E0
1.150646833E1,2.522254944E0,-9.876611481E0,-6.129753113E-1,1.021200093E1
1.151642733E1,2.488125916E0,-9.965825958E0,-1.305435333E0,1.035435266E1
1.152638633E1,2.252366180E0,-9.827663269E0,-1.802102509E0,1.024225035E1
1.153634533E1,2.038161621E0,-9.521100769E0,-1.826052704E0,9.906560005E0
1.154630433E1,1.488504639E0,-9.330696716E0,-1.474433899E0,9.563027899E0
1.155626333E1,1.149609375E0,-9.481582947E0,-9.702822876E-1,9.600180447E0
1.156622233E1,1.470242615E0,-9.453591156E0,-7.069798279E-1,9.593321613E0
1.157618033E1,1.772763519E0,-9.417216797E0,-8.687933350E-1,9.621926239E0
1.158613933E1,2.293680267E0,-9.494007111E0,-1.212478638E0,9.842115862E0
1.159609833E1,3.129691772E0,-9.691446533E0,-1.072369995E0,1.024056072E1
1.160605733E1,2.637814636E0,-9.834848328E0,-1.307530975E0,1.026605791E1
1.161601633E1,2.084714813E0,-9.814790039E0,-1.423539734E0,1.013422936E1
1.162597533E1,1.725312195E0,-9.748927002E0,-1.141975250E0,9.966061776E0
1.163593433E1,1.938019867E0,-9.576485596E0,-7.688012695E-1,9.800818984E0
1.164589333E1,2.205962677E0,-9.081015930E0,-7.620652771E-1,9.376132739E0
1.165585233E1,2.320923615E0,-8.943302307E0,-1.022972717E0,9.296010744E0
1.166581133E1,2.514920197E0,-8.988208923E0,-1.131946106E0,9.401809679E0
1.167577033E1,2.575993195E0,-9.035061493E0,-9.496252441E-1,9.442979679E0
1.168572933E1,2.498454437E0,-9.476942596E0,-6.999444580E-1,9.825713093E0
1.169568833E1,2.229164429E0,-9.949060822E0,-8.095166016E-1,1.022782002E1
1.170564733E1,2.433938599E0,-9.580676880E0,-7.731422424E-1,9.915199217E0
1.171560633E1,2.205812988E0,-9.758806458E0,-7.661068726E-1,1.003428294E1
1.172556533E1,1.816622314E0,-9.736652527E0,-8.824150085E-1,9.943901413E0
1.173552433E1,1.852996674E0,-9.410929871E0,-8.434959412E-1,9.628638694E0
1.174548233E1,2.510279846E0,-9.205856323E0,-5.026547241E-1,9.555205771E0
1.175544133E1,2.816692657E0,-9.338181152E0,-1.510359192E-1,9.754906284E0
1.176540033E1,2.716251526E0,-9.524393921E0,-1.968406677E-1,9.906101562E0
1.177535933E1,2.481240234E0,-9.499844971E0,-4.845423889E-1,9.830482638E0
1.178531833E1,2.175126801E0,-9.360335083E0,-6.728507996E-1,9.633264123E0
1.179527733E1,2.000889130E0,-9.244026947E0,-9.119036865E-1,9.501955580E0
1.180523633E1,1.814227295E0,-9.324559479E0,-1.094074860E0,9.562208424E0
1.181519533E1,1.623074799E0,-9.550290070E0,-1.271755371E0,9.770351782E0
1.182515433E1,1.534159698E0,-9.640103302E0,-1.651964722E0,9.900213386E0
1.183511333E1,1.812281342E0,-9.448202362E0,-1.774709473E0,9.782764704E0
1.184507233E1,1.935325470E0,-9.569300537E0,-1.859882355E0,9.938619613E0
1.185503133E1,2.101929016E0,-9.584119720E0,-1.723515930E0,9.962126458E0
1.186499033E1,1.733245697E0,-9.441765747E0,-1.514999542E0,9.718348866E0
1.187494933E1,1.052162018E0,-9.440418549E0,-1.764380951E0,9.661345011E0
1.188490833E1,4.305047607E-1,-9.334888000E0,-2.271676025E0,9.616963153E0
1.189486733E1,3.583398285E0,-8.893605652E0,-1.055006104E0,9.646242929E0
1.190482633E1,4.292773132E0,-9.367220764E0,-2.071691895E-1,1.030609747E1
1.191478533E1,2.592458954E0,-1.062161224E1,-1.605112152E0,1.105060519E1
1.192474433E1,2.542762299E0,-1.030951126E1,-1.646426239E0,1.074534234E1
1.193470233E1,2.091750183E0,-9.407936096E0,-1.746867371E0,9.794703979E0
1.194466133E1,1.501826935E0,-9.425449677E0,-1.312919769E0,9.634227736E0
1.195462033E1,9.596543884E-1,-9.803862762E0,-1.038240967E0,9.905281718E0
1.196457933E1,1.407073975E0,-9.758656769E0,-1.169517975E0,9.928696359E0
1.197453833E1,2.082619171E0,-9.555978241E0,-1.293609924E0,9.865467520E0
1.198449733E1,2.681673431E0,-9.207802277E0,-1.374292145E0,9.688326690E0
1.199445633E1,3.216660919E0,-9.239835663E0,-1.285227356E0,9.867790021E0
1.200441533E1,3.634292450E0,-9.426347809E0,-1.017883301E0,1.015382692E1
1.201437433E1,3.417992249E0,-9.467362518E0,-8.849597168E-1,1.010429502E1
1.202433333E1,2.666405182E0,-9.806557159E0,-9.074130249E-1,1.020302300E1
1.203429233E1,1.790127411E0,-9.984237671E0,-1.089733887E0,1.020181739E1
1.204425133E1,1.535506897E0,-9.974507904E0,-1.405876465E0,1.018945916E1
1.205421033E1,1.847907257E0,-9.485624542E0,-1.474882965E0,9.775843388E0
1.206416933E1,2.621049500E0,-8.873996429E0,-1.247954865E0,9.336760919E0
1.207412833E1,3.225492554E0,-8.578361206E0,-9.321116638E-1,9.211998445E0
1.208408733E1,2.875819702E0,-8.376880188E0,-1.033151550E0,8.916830310E0
1.209404633E1,2.562670898E0,-8.595276031E0,-1.334924011E0,9.067969690E0
1.210400533E1,2.524200897E0,-8.890611877E0,-1.301842804E0,9.333239760E0
1.211396433E1,1.993554382E0,-9.271419983E0,-1.265468445E0,9.567387207E0
1.212392333E1,1.059047699E0,-9.958341522E0,-1.285975800E0,1.009672628E1
1.213388233E1,4.174818420E-1,-1.027717850E1,-1.610650635E0,1.041099824E1
1.214384033E1,5.043013000E-1,-1.008632538E1,-1.952689362E0,1.028597468E1
1.215379933E1,1.132245483E0,-9.569300537E0,-1.866618347E0,9.815179910E0
1.216375833E1,1.875899048E0,-9.235494690E0,-1.464105377E0,9.537136046E0
1.217371733E1,2.280657349E0,-9.193731537E0,-1.404828644E0,9.575992953E0
1.218367633E1,2.759960632E0,-8.528814240E0,-9.843530273E-1,9.018148696E0
1.219363533E1,3.043022003E0,-8.634344788E0,-2.055226135E-1,9.157190200E0
1.220359433E1,2.470312958E0,-1.002719833E1,-8.906478882E-2,1.032739488E1
1.221355333E1,1.984423370E0,-1.073672287E1,-1.041234741E0,1.096810484E1
1.222351233E1,1.763033752E0,-1.008976822E1,-1.760189667E0,1.039278492E1
1.223347133E1,1.620380402E0,-9.225166168E0,-1.863325195E0,9.549937396E0
1.224343033E1,1.600172424E0,-8.819659424E0,-1.738784180E0,9.130734612E0
1.225338933E1,2.075134735E0,-8.651109924E0,-1.562899933E0,9.032748380E0
1.226334833E1,2.293380890E0,-8.616831207E0,-1.706002350E0,9.078536224E0
1.227330733E1,2.025288391E0,-8.969048767E0,-1.702260132E0,9.351113218E0
1.228326633E1,1.816921692E0,-9.473350067E0,-1.335373077E0,9.738007352E0
1.229322533E1,1.137933655E0,-1.015188904E1,-1.610800323E0,1.034168370E1
1.230318433E1,1.681752777E0,-1.041818527E1,-1.285077667E0,1.063100660E1
1.231314333E1,1.920057220E0,-9.959239655E0,-1.032702484E0,1.019507472E1
1.232310233E1,2.373164978E0,-9.995763702E0,-4.882846069E-1,1.028521394E1
1.233306133E1,2.803070984E0,-9.949060822E0,-4.260140991E-1,1.034516825E1
1.234302033E1,3.117866364E0,-9.833501129E0,-4.933740234E-1,1.032774191E1
1.235297833E1,2.608026581E0,-9.921817474E0,-9.048683167E-1,1.029869173E1
1.236293883E1,2.170037384E0,-9.496551819E0,-1.293909302E0,9.826889639E0
1.237289783E1,1.876647491E0,-9.233099670E0,-1.393601990E0,9.524392990E0
1.238285683E1,1.825903015E0,-9.136999512E0,-1.606010284E0,9.455048965E0
1.239281583E1,1.957629089E0,-8.853638763E0,-1.905537415E0,9.265543904E0
1.240277483E1,1.784139862E0,-8.784781952E0,-2.024539948E0,9.189902665E0
1.241273383E1,1.817221069E0,-8.945098572E0,-1.636696472E0,9.273395075E0
1.242269283E1,2.153871002E0,-9.332642670E0,-1.038690033E0,9.634119393E0
1.243265183E1,2.414329376E0,-9.707762604E0,-4.457730103E-1,1.001340874E1
1.244261083E1,2.592758331E0,-9.857900391E0,4.834945679E-2,1.019327884E1
1.245256983E1,2.713108063E0,-9.945318604E0,1.384620667E-1,1.030967940E1
1.246252883E1,2.708318024E0,-9.914482727E0,-1.017883301E-1,1.027824475E1
1.247248783E1,2.155517578E0,-1.035546570E1,-5.152285767E-1,1.058996631E1
1.248244683E1,2.071991272E0,-1.031879196E1,-7.979905701E-1,1.055497060E1
1.249240583E1,2.182012482E0,-1.010294083E1,-9.595046997E-1,1.038032953E1
1.250236483E1,2.048639832E0,-9.661658478E0,-1.279389496E0,9.958986253E0
1.251232383E1,1.749711456E0,-9.596843262E0,-1.637594604E0,9.891542188E0
1.252228283E1,3.618874512E0,-8.020621033E0,-1.187929688E0,8.879064783E0
1.253224183E1,2.943179626E0,-8.563242645E0,-1.359472961E0,9.156396543E0
1.254220083E1,2.047891388E0,-9.191635895E0,-1.682351532E0,9.566103503E0
1.255215983E1,1.868713989E0,-9.301507416E0,-1.579515381E0,9.617952018E0
1.256211783E1,1.687890015E0,-9.868378601E0,-1.621278534E0,1.014211087E1
1.257207683E1,1.851200409E0,-9.963730316E0,-1.408271484E0,1.023162222E1
1.258203583E1,1.976489868E0,-9.711504822E0,-1.041234741E0,9.965139632E0
1.259199483E1,1.902094574E0,-9.460177460E0,-9.276210022E-1,9.693987934E0
1.260195383E1,1.917362823E0,-9.104217682E0,-8.746311951E-1,9.344947272E0
1.261191283E1,1.370250549E0,-9.328601074E0,-5.752537537E-1,9.446232130E0
1.262187183E1,1.051563263E0,-9.356892242E0,-4.650828552E-1,9.427275311E0
1.263183083E1,1.235081635E0,-9.110953674E0,-4.831951904E-1,9.206974589E0
1.264178983E1,1.543290710E0,-9.342222748E0,-7.506889343E-1,9.498547571E0
1.265174883E1,1.594633942E0,-9.759405212E0,-1.006357269E0,9.939899520E0
1.266170783E1,1.395547943E0,-9.788145447E0,-1.094523926E0,9.947528737E0
1.267166683E1,1.450783081E0,-9.383237457E0,-1.195114746E0,9.569650777E0
1.268162583E1,1.635798340E0,-9.184151459E0,-1.103954315E0,9.393784613E0
1.269158483E1,1.930236053E0,-9.201665039E0,-8.583151245E-1,9.441035725E0
1.270154383E1,2.317031708E0,-9.640702057E0,-5.466632080E-1,9.930287647E0
1.271150283E1,2.761607208E0,-9.984986115E0,-1.868115234E-1,1.036153081E1
1.272146183E1,3.003953247E0,-1.035666321E1,-1.380130005E-1,1.078439871E1
1.273142083E1,2.986589355E0,-1.038914566E1,-5.463638306E-1,1.082370440E1
1.274137883E1,2.737956390E0,-1.010877869E1,-1.336271210E0,1.055790853E1
1.275133783E1,2.539618835E0,-9.787696381E0,-1.930984497E0,1.029453085E1
1.276129683E1,2.173929291E0,-9.221124573E0,-2.083666992E0,9.700349225E0
1.277125583E1,1.837578735E0,-8.557105408E0,-1.560804291E0,8.890267634E0
1.278121483E1,1.482068024E0,-8.436605988E0,-1.112187195E0,8.637696833E0
1.279117383E1,1.410666504E0,-8.604257355E0,-8.743318176E-1,8.762858023E0
1.280113283E1,1.420995026E0,-9.014404449E0,-9.032217407E-1,9.170306645E0
1.281109183E1,1.514999542E0,-9.663754120E0,-1.375040588E0,9.877960514E0
1.282105083E1,1.713486786E0,-9.686207428E0,-1.273851013E0,9.918737203E0
1.283100983E1,2.090402985E0,-9.970166931E0,-1.356928253E0,1.027692890E1
1.284096883E1,2.083367615E0,-1.013347733E1,-1.384470978E0,1.043765027E1
1.285092783E1,1.983824615E0,-9.879605255E0,-1.276246033E0,1.015731087E1
1.286088683E1,2.090402985E0,-9.716743927E0,-1.047521667E0,9.994108206E0
1.287084583E1,2.237696686E0,-9.708511047E0,-7.502398682E-1,9.991262837E0
1.288080483E1,2.149530029E0,-9.739646301E0,-6.587800598E-1,9.995758130E0
1.289076383E1,1.905387726E0,-9.654772797E0,-8.072712708E-1,9.874048159E0
1.290072283E1,1.687740326E0,-9.809251556E0,-9.979747009E-1,1.000329131E1
1.291068183E1,1.663640442E0,-9.947114868E0,-1.067430267E0,1.014160742E1
1.292064083E1,1.897304535E0,-9.759704590E0,-1.211879883E0,1.001599975E1
1.293059883E1,1.986219635E0,-9.528585205E0,-1.342857513E0,9.825592641E0
1.294055783E1,2.205513611E0,-9.200766907E0,-1.468895416E0,9.574761391E0
1.295051683E1,2.409689026E0,-8.915609894E0,-1.775607605E0,9.404652218E0
1.296047583E1,2.279759216E0,-8.847052460E0,-1.874402161E0,9.326361711E0
1.297043483E1,2.236798553E0,-8.853040009E0,-1.625619507E0,9.274816653E0
1.298039383E1,2.347867584E0,-9.156608734E0,-1.234782257E0,9.533134475E0
1.299035283E1,2.362088013E0,-9.571096802E0,-1.004261627E0,9.909283283E0
1.300031183E1,2.340981903E0,-9.724527740E0,-1.041085052E0,1.005636585E1
1.301027083E1,1.982926483E0,-9.711205444E0,-9.783654785E-1,9.959754396E0
1.302022983E1,1.753603363E0,-1.015518219E1,-7.135661316E-1,1.033015134E1
1.303018883E1,1.932331696E0,-9.870324554E0,-3.571572876E-1,1.006403368E1
1.304014783E1,2.290536804E0,-9.325607300E0,-2.163002014E-1,9.605222337E0
1.305010683E1,2.409689026E0,-9.207951965E0,-2.359094238E-1,9.520957612E0
1.306006583E1,2.459535370E0,-9.330696716E0,-3.610491943E-1,9.656167561E0
1.307002483E1,2.279310150E0,-9.484726410E0,-6.215075684E-1,9.774536382E0
1.307998383E1,1.668430481E0,-9.456584930E0,-1.206491089E0,9.678134095E0
1.308994283E1,1.163231049E0,-9.291777649E0,-1.435814209E0,9.473742702E0
1.309990183E1,9.921368408E-1,-9.393116913E0,-1.173709259E0,9.518013147E0
1.310986083E1,1.214424591E0,-9.680818634E0,-1.407822418E0,9.857740130E0
1.311981883E1,1.501527557E0,-9.902357941E0,-1.625020752E0,1.014652503E1
1.312977783E1,1.578168182E0,-9.899962921E0,-1.629361725E0,1.015651024E1
1.313973683E1,1.495090942E0,-1.017673737E1,-1.498384094E0,1.039453872E1
1.314969583E1,1.603016510E0,-1.025382706E1,-1.468446350E0,1.048174441E1
1.315965483E1,2.027533722E0,-9.685458984E0,-1.467248840E0,1.000359075E1
1.316961383E1,2.599494324E0,-9.302704926E0,-1.350042572E0,9.752963889E0
1.317957283E1,2.872526550E0,-9.102421417E0,-1.215771790E0,9.622036452E0
1.318953183E1,2.782563629E0,-8.889564056E0,-1.146016846E0,9.385113962E0
1.319949083E1,1.898801422E0,-9.564809875E0,-1.308129730E0,9.838812844E0
1.320944983E1,1.617835693E0,-9.851912842E0,-1.369202728E0,1.007731587E1
1.321940883E1,1.876797180E0,-9.850116577E0,-1.441502380E0,1.013040440E1
1.322936783E1,2.052831116E0,-9.479636993E0,-1.469943237E0,9.810115506E0
1.323932683E1,2.408042450E0,-9.003327484E0,-1.348246307E0,9.416811686E0
1.324928583E1,2.279160461E0,-9.348060608E0,-9.416917419E-1,9.667863925E0
1.325924483E1,2.257156219E0,-9.401349792E0,-3.882925415E-1,9.676306280E0
1.326920383E1,2.130220184E0,-9.486822052E0,-1.498384094E-1,9.724200853E0
1.327916183E1,1.909579010E0,-9.428742828E0,-4.041595459E-1,9.628656617E0
1.328912083E1,1.874402161E0,-9.283844147E0,-9.047186279E-1,9.514287225E0
1.329907983E1,1.727557526E0,-9.437873840E0,-1.481618958E0,9.708404213E0
1.330903883E1,1.584155731E0,-9.737999725E0,-1.944007416E0,1.005571245E1
1.331899783E1,1.799108734E0,-9.492959290E0,-1.982477417E0,9.863228935E0
1.332895683E1,1.893712006E0,-9.108109589E0,-1.646875305E0,9.447539558E0
1.333891583E1,1.736538849E0,-8.959019623E0,-1.097068634E0,9.191472100E0
1.334887483E1,1.800455933E0,-9.060508575E0,-5.568420410E-1,9.254433006E0
1.335883325E1,2.049088898E0,-9.626182251E0,-4.120930481E-1,9.850480735E0
1.336879225E1,2.284698944E0,-9.948911133E0,-9.068142700E-1,1.024807270E1
1.337875125E1,2.766097870E0,-1.008497818E1,-1.498833160E0,1.056430704E1
1.338871025E1,3.394341431E0,-9.895771637E0,-1.697021027E0,1.059847774E1
1.339866925E1,3.459605713E0,-9.649234314E0,-1.643432465E0,1.038159259E1
1.340862825E1,3.190315704E0,-9.606722717E0,-1.447340240E0,1.022555766E1
1.341858725E1,2.386487274E0,-9.650731201E0,-1.262025604E0,1.002120965E1
1.342854625E1,1.506467285E0,-9.499994659E0,-1.157243500E0,9.688062486E0
1.343850525E1,1.258283386E0,-9.375453644E0,-1.129700775E0,9.526732491E0
1.344846425E1,1.321751404E0,-9.627379761E0,-1.064286804E0,9.775795325E0
1.345842225E1,1.806293793E0,-9.878258057E0,-1.125060425E0,1.010487211E1
1.346838125E1,2.219734039E0,-9.945318604E0,-1.202150116E0,1.026068936E1
1.347834025E1,2.030527496E0,-9.849517822E0,-1.322350159E0,1.014320724E1
1.348829925E1,2.015259247E0,-9.257049866E0,-1.437460785E0,9.582303249E0
1.349825825E1,1.508712616E0,-8.951535187E0,-1.522034912E0,9.204498152E0
1.350821725E1,9.613009644E-1,-9.008117523E0,-1.440604248E0,9.173092252E0
1.351817625E1,9.249266052E-1,-9.063053284E0,-1.305285645E0,9.203162210E0
1.352813525E1,1.163530426E0,-9.141190796E0,-1.258133698E0,9.300434002E0
1.353809425E1,1.388662262E0,-9.601184235E0,-1.201850739E0,9.775252773E0
1.354805325E1,2.071392517E0,-1.008243347E1,-1.213825836E0,1.036433813E1
1.355801225E1,2.774330750E0,-9.989476776E0,-1.415157166E0,1.046371001E1
1.356797125E1,2.967578888E0,-9.954748993E0,-1.681752777E0,1.052291995E1
1.357793025E1,3.049907684E0,-9.988129578E0,-1.628762970E0,1.056965175E1
1.358788925E1,2.667752380E0,-9.425299988E0,-1.460512848E0,9.903851796E0
1.359784825E1,2.073787537E0,-9.023834839E0,-1.215771790E0,9.338537947E0
1.360780725E1,1.608405304E0,-8.906179504E0,-9.105564880E-1,9.095939429E0
1.361776625E1,1.281485138E0,-8.821904755E0,-7.469467163E-1,8.945732897E0
1.362772525E1,1.187031555E0,-9.185798035E0,-6.617738342E-1,9.285788822E0
1.363768325E1,1.360071716E0,-9.762698364E0,-6.426136780E-1,9.877905991E0
1.364764225E1,1.580862579E0,-1.006866211E1,-7.716453552E-1,1.022117996E1
1.365760125E1,1.732946320E0,-1.023032593E1,-1.020727386E0,1.042614770E1
1.366756025E1,1.592687988E0,-9.987081757E0,-1.337917786E0,1.020139603E1
1.367751925E1,1.883982239E0,-9.387877808E0,-1.310375061E0,9.664301403E0
1.368747825E1,2.096540222E0,-9.383536835E0,-1.099313965E0,9.677537684E0
1.369743725E1,2.023941193E0,-9.203311615E0,-1.150357819E0,9.493187333E0
1.370739625E1,1.318757629E0,-9.381590881E0,-1.494043121E0,9.590908925E0
1.371735525E1,1.061143341E0,-9.389075317E0,-1.614542542E0,9.585797209E0
1.372731425E1,1.955832825E0,-9.044940948E0,-1.589095459E0,9.389433592E0
1.373727325E1,2.129172363E0,-8.992400208E0,-1.191522217E0,9.317529803E0
1.374723225E1,1.460961914E0,-9.261690216E0,-1.381776581E0,9.477479723E0
1.375719125E1,7.283853149E-1,-9.971214752E0,-2.162403259E0,1.022896166E1
1.376715025E1,8.732839966E-1,-1.018092865E1,-2.590662689E0,1.054160644E1
1.377710925E1,1.309476929E0,-1.012868729E1,-2.763104095E0,1.058015974E1
1.378706825E1,1.571282501E0,-1.004336472E1,-2.708916779E0,1.052028201E1
1.379702725E1,2.031575317E0,-9.831854553E0,-2.327210541E0,1.030575427E1
1.380698625E1,2.327659607E0,-9.742640076E0,-1.902543640E0,1.019591620E1
1.381694425E1,2.436483307E0,-9.295819244E0,-1.675914917E0,9.754865306E0
1.382690325E1,1.780247955E0,-9.651329956E0,-1.276545410E0,9.896818726E0
1.383686225E1,1.019978943E0,-1.017209702E1,-9.797126770E-1,1.026994409E1
1.384682125E1,6.972500610E-1,-1.015578094E1,-8.589138794E-1,1.021585911E1
1.385678025E1,5.284011841E-1,-1.011416748E1,-7.547305298E-1,1.015604302E1
1.386673925E1,4.230203247E-1,-1.000669098E1,-6.060896301E-1,1.003395013E1
1.387669825E1,6.358776855E-1,-9.669891357E0,-5.551954651E-1,9.706666848E0
1.388665725E1,7.643106079E-1,-9.442663879E0,-9.104067993E-1,9.517190362E0
1.389661625E1,8.901988220E-1,-9.428892517E0,-1.467248840E0,9.583803379E0
1.390657525E1,1.268911285E0,-9.324260101E0,-2.180814972E0,9.659602281E0
1.391653425E1,1.672472076E0,-9.519005127E0,-2.847977600E0,1.007569342E1
1.392649325E1,2.031874695E0,-1.012748978E1,-3.121907959E0,1.079077723E1
1.393645225E1,2.739453278E0,-1.023212219E1,-2.824476471E0,1.096259988E1
1.394641125E1,3.434008942E0,-9.718839569E0,-2.364483032E0,1.057539786E1
1.395637025E1,3.630550232E0,-9.004674683E0,-1.847907257E0,9.883310293E0
1.396632925E1,3.722159729E0,-8.822952576E0,-1.041833496E0,9.632465013E0
1.397628825E1,3.994892578E0,-9.196575623E0,-5.028044128E-1,1.003937160E1
1.398624725E1,4.231550446E0,-8.935668182E0,-6.167175293E-1,9.906186226E0
1.399620525E1,4.161047058E0,-8.384514313E0,-9.904902649E-1,9.412516340E0
1.400616425E1,4.054169312E0,-8.409961395E0,-1.088536377E0,9.399396306E0
1.401612325E1,3.188220062E0,-8.965007172E0,-1.106948090E0,9.579218905E0
1.402608225E1,1.913620605E0,-9.350156250E0,-1.288670197E0,9.630578207E0
1.403604125E1,8.162525940E-1,-9.275910645E0,-1.645827484E0,9.456084533E0
1.404600025E1,5.944139099E-1,-9.290729828E0,-2.104024658E0,9.544522429E0
1.405595925E1,9.598040771E-1,-8.995244293E0,-2.108964386E0,9.288884462E0
1.406591825E1,1.088087311E0,-8.647966461E0,-1.979633331E0,8.938132134E0
1.407587725E1,1.170715485E0,-8.658294983E0,-1.948947144E0,8.951817789E0
1.408583625E1,1.289568329E0,-8.910520477E0,-1.902393951E0,9.202144554E0
1.409579525E1,1.368454285E0,-9.137897644E0,-1.694176941E0,9.393831805E0
1.410575425E1,1.193019104E0,-9.276060333E0,-1.375040588E0,9.453006215E0
1.411571325E1,1.226250000E0,-9.526639252E0,-1.488205261E0,9.719840503E0
1.412567225E1,1.436862030E0,-9.464817810E0,-1.484313354E0,9.687648569E0
1.413563125E1,1.595532074E0,-8.879684601E0,-1.590442657E0,9.161005898E0
1.414559025E1,1.617087250E0,-8.401728516E0,-1.914668427E0,8.767552019E0
1.415554925E1,1.275347900E0,-8.465495911E0,-2.170486450E0,8.831882286E0
1.416550725E1,8.472381592E-1,-8.884923706E0,-2.449356537E0,9.255216324E0
1.417546625E1,4.306544495E-1,-9.080866241E0,-2.698438568E0,9.483098948E0
1.418542525E1,3.086581421E-1,-9.017547913E0,-2.640808411E0,9.401346141E0
1.419538425E1,4.340972900E-2,-9.148076477E0,-1.944606171E0,9.352576158E0
1.420534325E1,-1.974394226E-1,-8.960815887E0,-1.033151550E0,9.022339265E0
1.421530225E1,-2.646496582E-1,-8.428822174E0,-2.977308655E-1,8.438230049E0
1.422526125E1,-9.056167603E-2,-8.571625214E0,2.071691895E-1,8.574606655E0
1.423522025E1,-2.920426941E-1,-9.084009705E0,3.369493103E-1,9.094946734E0
1.424517925E1,-5.977070618E-1,-9.629026337E0,1.270857239E-1,9.648396380E0
1.425513825E1,-5.700146484E-1,-9.872120819E0,-4.559518433E-1,9.899069565E0
1.426509725E1,-4.849914551E-1,-1.001956421E1,-1.019380188E0,1.008295689E1
1.427505625E1,-4.520599365E-2,-1.044527893E1,-7.566764832E-1,1.047274820E1
1.428501525E1,1.410067749E-1,-1.047506699E1,-2.041754150E-1,1.047800548E1
1.429497425E1,2.026785278E-1,-1.004111938E1,-5.783972168E-1,1.005980618E1
1.430493325E1,2.007325745E-1,-9.542655945E0,-2.040556641E0,9.760453240E0
1.431489225E1,1.339564362E0,-9.864786072E0,-3.165617065E0,1.044650986E1
1.432485125E1,2.448009338E0,-1.076321777E1,-2.794688416E0,1.138639056E1
1.433481025E1,2.481539612E0,-1.155132889E1,-2.143542480E0,1.200774801E1
1.434476825E1,1.985022125E0,-1.171987839E1,-2.077380066E0,1.206695364E1
1.435472725E1,2.030078430E0,-1.161344971E1,-2.045646057E0,1.196570517E1
1.436468558E1,2.601889343E0,-1.102113144E1,-1.989063721E0,1.149745802E1
1.437464458E1,2.509232025E0,-1.019499939E1,-2.549049225E0,1.080425425E1
1.438460358E1,2.124981079E0,-9.674232330E0,-3.120560760E0,1.038480694E1
1.439456258E1,1.811383209E0,-9.113348694E0,-3.038381653E0,9.775786240E0
1.440452158E1,9.824070740E-1,-8.348439331E0,-2.674338684E0,8.821204584E0
1.441448058E1,1.267863464E-1,-8.563841400E0,-2.484383698E0,8.917825781E0
1.442443958E1,2.406994629E-1,-9.053173828E0,-2.331551514E0,9.351685680E0
1.443439858E1,7.704478455E-1,-9.579928436E0,-1.579365692E0,9.739764613E0
1.444435758E1,1.696721649E0,-9.426347809E0,-6.328839111E-1,9.598720718E0
1.445431658E1,2.352657623E0,-9.148525543E0,1.469943237E-1,9.447334272E0
1.446427558E1,2.452649689E0,-8.990005188E0,7.985893250E-1,9.352723063E0
1.447423458E1,2.015408936E0,-8.848848724E0,1.298549652E0,9.167891149E0
1.448419358E1,1.353635101E0,-8.833879852E0,1.663640442E0,9.090514878E0
1.449415258E1,7.723937988E-1,-9.061257019E0,1.761387177E0,9.263123433E0
1.450411158E1,6.230044556E-1,-9.297914886E0,1.341210938E0,9.414786379E0
1.451407058E1,9.511221313E-1,-9.572144623E0,8.505313110E-1,9.656810524E0
1.452402858E1,8.776249695E-1,-9.943672028E0,3.984713745E-1,9.990276193E0
1.453398758E1,4.293072510E-1,-1.046533722E1,-4.266128540E-1,1.048282340E1
1.454394658E1,6.870712280E-2,-1.064256866E1,-1.496887207E0,1.074754203E1
1.455390558E1,-3.950285339E-1,-9.997559967E0,-2.390079803E0,1.028687194E1
1.456386458E1,-6.313870239E-1,-9.049281921E0,-2.608475647E0,9.438871652E0
1.457382358E1,-8.640032959E-1,-9.532926178E0,-2.457739105E0,9.882492839E0
1.458378258E1,-1.167721710E0,-9.766141205E0,-1.667831726E0,9.976108996E0
1.459374158E1,-2.051184540E0,-1.092458221E1,-1.398691406E0,1.120313314E1
1.460370058E1,-1.811532898E0,-1.117516113E1,-1.317709808E0,1.139746625E1
1.461365958E1,-1.302291870E0,-1.171613617E1,-1.536704407E0,1.188803059E1
1.462361858E1,1.331181793E0,-1.071262299E1,-1.653461609E0,1.092090983E1
1.463357758E1,3.883075104E0,-9.255103912E0,-1.095422058E0,1.009629487E1
1.464353658E1,2.728675690E0,-1.008782227E1,-8.394543457E-1,1.048401224E1
1.465349558E1,1.769470367E0,-1.047731232E1,-7.384144592E-1,1.065130765E1
1.466345458E1,1.339564362E0,-9.834698639E0,-4.043092346E-1,9.933740280E0
1.467341358E1,8.789721680E-1,-9.585317230E0,6.631210327E-2,9.625762088E0
1.468337258E1,7.969427490E-1,-9.161398773E0,4.269122314E-1,9.205900243E0
1.469333158E1,7.161108398E-1,-8.829987946E0,1.830693054E-1,8.860869947E0
1.470329058E1,1.460363159E0,-8.270152130E0,-1.098715210E-1,8.398818284E0
1.471324958E1,2.273322601E0,-8.097111969E0,1.016386414E-1,8.410799504E0
1.472320758E1,2.291434937E0,-8.466843109E0,1.856140137E-1,8.773400644E0
1.473316658E1,8.780740356E-1,-9.325307922E0,4.559518433E-1,9.377647570E0
1.474312558E1,-7.753875732E-2,-1.001477417E1,3.891906738E-1,1.002263355E1
1.475308458E1,-3.203338623E-1,-1.043495041E1,-1.526824951E-1,1.044098251E1
1.476304358E1,-1.263372803E-1,-1.130838409E1,-3.555107117E-1,1.131467630E1
1.477300258E1,3.969744873E-1,-1.187779999E1,-1.496887207E-2,1.188444131E1
1.478296158E1,6.712042236E-1,-1.168889282E1,3.957769775E-1,1.171483546E1
1.479292058E1,8.114625549E-1,-1.105690704E1,1.766326904E-1,1.108805050E1
1.480287958E1,6.677613831E-1,-1.039782761E1,-3.582051086E-1,1.042540335E1
1.481283858E1,4.629872131E-1,-9.884245605E0,-7.008425903E-1,9.919871405E0
1.482279758E1,9.864486694E-2,-9.605525208E0,-6.821315002E-1,9.630220595E0
1.483275658E1,-4.707710266E-1,-9.154812469E0,-7.171586609E-1,9.194918883E0
1.484271558E1,-8.803193665E-1,-8.901688843E0,-6.563850403E-1,8.969162043E0
1.485267458E1,-8.349636841E-1,-8.934770050E0,-2.860551453E-1,8.978257501E0
1.486263358E1,-7.710466003E-1,-9.371861115E0,-5.598358154E-2,9.403692241E0
1.487259258E1,-5.957611084E-1,-9.860295410E0,6.676116943E-2,9.878502616E0
1.488255158E1,-1.646575928E-1,-9.783056030E0,5.673202515E-2,9.784606070E0
1.489251058E1,3.942800903E-1,-9.615704041E0,1.721420288E-2,9.623799526E0
1.490246958E1,6.840774536E-1,-9.750872955E0,-1.056802368E-1,9.775410665E0
1.491242858E1,1.091230774E0,-9.827513580E0,-2.794688416E-1,9.891860826E0
1.492238758E1,1.569037170E0,-9.806557159E0,-3.317102051E-1,9.936824071E0
1.493234558E1,1.903292084E0,-9.555529175E0,-3.221301270E-1,9.748560221E0
1.494230458E1,2.042801971E0,-9.357041931E0,-1.134640503E-1,9.578107730E0
1.495226358E1,1.334624634E0,-9.691745911E0,-1.315763855E-1,9.784092909E0
1.496222258E1,8.425978088E-1,-9.812395020E0,-1.835183716E-1,9.850215535E0
1.497218158E1,6.779402161E-1,-9.663604431E0,-4.334985352E-1,9.697049784E0
1.498214058E1,3.206332397E-1,-9.664801941E0,-6.951544189E-1,9.695073073E0
1.499209958E1,1.098715210E-1,-9.893526306E0,-5.153782654E-1,9.907550115E0
1.500205858E1,3.674858093E-1,-1.029573990E1,7.080276489E-2,1.030253944E1
1.501201758E1,1.095272369E0,-1.005144791E1,4.179309082E-1,1.011957968E1
1.502197658E1,1.417252808E0,-9.626331940E0,3.215313721E-1,9.735412398E0
1.503193558E1,1.079555054E0,-9.686506805E0,2.149530029E-1,9.748849060E0
1.504189458E1,3.790118408E-1,-1.013467484E1,3.339555359E-1,1.014725629E1
1.505185358E1,-4.340972900E-2,-1.047252228E1,4.073030090E-1,1.048052971E1
1.506181258E1,-1.992356873E-1,-1.052431458E1,3.333567810E-1,1.053147753E1
1.507177158E1,-1.142124939E-1,-1.074660233E1,1.163081360E-1,1.074783856E1
1.508173058E1,6.020480347E-1,-1.038031403E1,-1.661544800E-1,1.039908594E1
1.509168958E1,1.060544586E0,-1.009021729E1,-8.472381592E-2,1.014615286E1
1.510164858E1,1.160836029E0,-9.905202026E0,1.038839722E-1,9.973532942E0
1.511160758E1,9.943821716E-1,-9.823322296E0,2.621049500E-1,9.877001359E0
1.512156658E1,6.545887756E-1,-9.608219604E0,5.776487732E-1,9.647800192E0
1.513152558E1,-1.136137390E-1,-9.267677765E0,4.670288086E-1,9.280133358E0
1.514148458E1,-6.239025879E-1,-8.821156311E0,-9.131011963E-2,8.843663870E0
1.515144358E1,-4.288581848E-1,-8.967102814E0,-7.309300232E-1,9.007058949E0
1.516140258E1,-1.377136230E-1,-1.016880386E1,-1.104553070E0,1.022954420E1
1.517136058E1,8.002359009E-1,-1.077100159E1,-6.056405640E-1,1.081765470E1
1.518131958E1,1.489253082E0,-1.074615326E1,-2.406994629E-1,1.085152620E1
1.519127858E1,1.417552185E0,-1.044572800E1,-9.804611206E-2,1.054193059E1
1.520123758E1,9.865983582E-1,-1.004321503E1,2.787203979E-1,1.009540635E1
1.521119658E1,4.626878357E-1,-9.849218445E0,6.128256226E-1,9.879106197E0
1.522115558E1,5.628295898E-2,-9.615554352E0,7.523355103E-1,9.645105597E0
1.523111458E1,-4.095483398E-1,-9.174122314E0,3.879931641E-1,9.191451941E0
1.524107358E1,-3.267704773E-1,-8.920399933E0,1.302291870E-1,8.927332947E0
1.525103258E1,-3.583547974E-1,-9.064400482E0,7.575746155E-1,9.103059571E0
1.526099158E1,-5.351371765E-1,-9.572294312E0,1.486259308E0,9.701760506E0
1.527095058E1,-2.523751831E-1,-1.009141479E1,1.531914368E0,1.021014728E1
1.528090958E1,3.863465881E-1,-1.027628036E1,9.482780457E-1,1.032716965E1
1.529086858E1,1.096170502E0,-1.000609222E1,6.289920044E-1,1.008558884E1
1.530082758E1,1.483564911E0,-9.845625916E0,3.562591553E-1,9.963143836E0
1.531078658E1,1.115480347E0,-1.032088760E1,5.890251160E-1,1.039769051E1
1.532074558E1,4.068539429E-1,-1.036878799E1,8.369096375E-1,1.041046168E1
1.533070458E1,5.343887329E-1,-9.819131012E0,8.973838806E-1,9.874522924E0
1.534066358E1,1.495689697E0,-9.050180054E0,3.207829285E-1,9.178548271E0
1.535062258E1,2.268981628E0,-8.574020233E0,-1.767823792E-1,8.870927381E0
1.536058183E1,2.216740265E0,-8.710985413E0,-1.631607056E-1,8.990095977E0
1.537054083E1,1.619931335E0,-9.075178070E0,5.777984619E-2,9.218805402E0
1.538049983E1,1.133442993E0,-9.244925079E0,-1.137634277E-1,9.314841644E0
1.539045883E1,7.268884277E-1,-9.530531158E0,-6.349795532E-1,9.579279199E0
1.540041783E1,3.760180664E-1,-9.825268250E0,-7.394622803E-1,9.860227696E0
1.541037683E1,2.878514099E-1,-1.021430923E1,-2.438429260E-1,1.022127345E1
1.542033583E1,4.120930481E-1,-1.021056702E1,1.302291870E-2,1.021888786E1
1.543029483E1,2.049238586E-1,-1.034184402E1,-7.110214233E-2,1.034411848E1
1.544025383E1,3.418890381E-1,-1.046129562E1,-1.727407837E-1,1.046830615E1
1.545021183E1,1.011296997E0,-1.021191422E1,-3.697311401E-2,1.026193357E1
1.546017083E1,1.513053589E0,-1.015667908E1,-2.941383362E-1,1.027297320E1
1.547012983E1,1.615440674E0,-1.011506561E1,-3.788621521E-1,1.025025548E1
1.548008883E1,1.451531525E0,-1.011835876E1,-2.827619934E-1,1.022585362E1
1.549004783E1,1.224304047E0,-9.703122253E0,-3.028202820E-1,9.784743328E0
1.550000683E1,9.705816650E-1,-9.105115814E0,-3.653901672E-1,9.163987818E0
1.550996583E1,8.863069153E-1,-8.671916656E0,-2.380050659E-1,8.720339721E0
1.551992483E1,2.871029663E-1,-9.045090637E0,-5.972579956E-2,9.049843088E0
1.552988383E1,-1.181044006E-1,-9.176816711E0,9.325607300E-2,9.178050463E0
1.553984283E1,-5.146298218E-1,-8.898695068E0,2.263293457E-1,8.916436662E0
1.554980183E1,-7.393125916E-1,-9.253756714E0,1.166075134E-1,9.283975104E0
1.555976083E1,-7.783813477E-3,-9.163195038E0,3.119512939E-1,9.168506830E0
1.556971983E1,6.351292419E-1,-8.982371063E0,6.331832886E-1,9.027031636E0
1.557967883E1,1.387764130E0,-9.041198730E0,1.108744354E0,9.214036998E0
1.558963783E1,1.335672455E0,-9.276659088E0,1.186582489E0,9.447137278E0
1.559959683E1,5.920188904E-1,-9.971214752E0,8.888516235E-1,1.002824348E1
1.560955583E1,-2.448907471E-1,-1.057371185E1,5.010081482E-1,1.058840701E1
1.561951483E1,-6.852749634E-1,-1.081066910E1,-3.323089600E-2,1.083241766E1
1.562947383E1,-8.981323242E-1,-1.099583405E1,-5.316943359E-1,1.104525721E1
1.563943283E1,-9.750723267E-1,-1.108953918E1,-7.447013855E-1,1.115720509E1
1.564939183E1,-8.437953186E-1,-1.098026642E1,-6.421646118E-1,1.103134700E1
1.565935083E1,-6.289920044E-1,-1.071411987E1,-3.513194275E-1,1.073831555E1
1.566930983E1,-2.942880249E-1,-1.020368134E1,2.874023438E-2,1.020796475E1
1.567926883E1,-6.167175293E-2,-9.677375793E0,-1.302291870E-2,9.677581064E0
1.568922783E1,-4.902305603E-1,-9.391170959E0,-4.264631653E-1,9.413622513E0
1.569918683E1,-9.487271118E-1,-9.888436890E0,-1.423539734E-1,9.934864463E0
1.570914583E1,-1.303040314E0,-1.068702621E1,4.323010254E-1,1.077484698E1
1.571910383E1,-1.248703308E0,-1.114881592E1,4.921765137E-1,1.122931850E1
1.572906283E1,-9.523196411E-1,-1.112097382E1,-1.333726501E-1,1.116247103E1
1.573902183E1,-5.149291992E-1,-1.086186264E1,-1.060694275E0,1.092567089E1
1.574898083E1,4.400848389E-2,-1.044108765E1,-1.813029785E0,1.059742068E1
1.575893983E1,3.367996216E-1,-1.021625519E1,-2.201022949E0,1.045608943E1
1.576889883E1,4.252656555E-1,-1.002570145E1,-2.204765167E0,1.027407075E1
1.577885783E1,4.272116089E-1,-9.697434082E0,-1.900148621E0,9.891071849E0
1.578881683E1,7.783813477E-2,-9.564809875E0,-1.145118713E0,9.633428445E0
1.579877583E1,-3.650907898E-1,-9.208850098E0,-1.907034302E-1,9.218057236E0
1.580873483E1,-4.297563171E-1,-8.867110748E0,8.072712708E-1,8.914147767E0
1.581869383E1,-2.914439392E-1,-8.632398834E0,1.734592896E0,8.809770810E0
1.582865283E1,-3.686833191E-1,-8.434510345E0,2.399809570E0,8.777014192E0
1.583861183E1,-8.235873413E-1,-8.880582733E0,2.862946472E0,9.366936975E0
1.584857083E1,-1.398092651E0,-9.869725800E0,3.166814575E0,1.045920002E1
1.585852983E1,-1.421893158E0,-1.042806473E1,3.228037262E0,1.100847577E1
1.586848883E1,-9.964778137E-1,-1.043045975E1,3.131637726E0,1.093593222E1
1.587844783E1,-4.125421143E-1,-1.003064117E1,2.880310364E0,1.044414387E1
1.588840683E1,2.065704346E-2,-9.660011902E0,2.524051208E0,9.984342300E0
1.589836583E1,7.209008789E-1,-9.275162201E0,2.420765991E0,9.612930870E0
1.590832483E1,1.655108185E0,-8.992549896E0,2.608924713E0,9.508513285E0
1.591828383E1,1.928290100E0,-9.596843262E0,2.674039307E0,1.014732425E1
1.592824283E1,1.199306030E0,-1.151091293E1,2.339335327E0,1.180728340E1
1.593820183E1,1.951940918E-1,-1.239183105E1,1.053060150E0,1.243802691E1
1.594816083E1,-3.375480652E-1,-1.085288132E1,-1.192420349E0,1.092340780E1
1.595811983E1,-8.334667969E-1,-9.190438385E0,-3.731590118E0,9.954074011E0
1.596807783E1,-1.505718842E0,-7.975115662E0,-5.064119110E0,9.566345248E0
1.597803683E1,-2.142045593E0,-7.324718170E0,-4.495152283E0,8.856988746E0
1.598799583E1,-2.320773926E0,-7.314689026E0,-2.876268768E0,8.195339480E0
1.599795483E1,-2.972518616E0,-7.891439667E0,-1.325792999E0,8.536299785E0
1.600791383E1,-3.968098297E0,-8.596174164E0,-1.672023010E-1,9.469317344E0
1.601787283E1,-4.073778534E0,-9.266031189E0,4.412823486E-1,1.013162058E1
1.602783183E1,-3.373983765E0,-8.787775726E0,7.502398682E-1,9.443073044E0
1.603779083E1,-2.576591949E0,-8.343798981E0,8.729846191E-1,8.776098772E0
1.604774983E1,-2.181413727E0,-8.187374268E0,1.091829529E0,8.543053024E0
1.605770883E1,-1.860181732E0,-8.071365509E0,1.401834869E0,8.400735578E0
1.606766783E1,-1.655856628E0,-8.119265900E0,1.654210052E0,8.449896498E0
1.607762683E1,-1.659449158E0,-8.572074280E0,1.701362000E0,8.895440496E0
1.608758583E1,-1.613943787E0,-9.084309082E0,1.396446075E0,9.331642282E0
1.609754483E1,-1.426234131E0,-9.177864532E0,7.836204529E-1,9.321019375E0
1.610750383E1,-1.485361176E0,-9.292376404E0,6.227050781E-2,9.410549116E0
1.611746283E1,-1.477876740E0,-9.143585815E0,-6.515950012E-1,9.285141747E0
1.612742183E1,-1.487756195E0,-8.733738098E0,-1.414708099E0,8.971789045E0
1.613738083E1,-1.636995850E0,-8.519982605E0,-2.148182831E0,8.937815643E0
1.614733983E1,-1.902393951E0,-8.495134277E0,-2.732717285E0,9.124371370E0
1.615729883E1,-2.397115173E0,-9.125772858E0,-2.934198303E0,9.881063257E0
1.616725783E1,-3.051853638E0,-1.038106247E1,-2.399061127E0,1.108312965E1
1.617721683E1,-3.078797607E0,-1.051533325E1,-1.540147247E0,1.106450549E1
1.618717583E1,-3.149151306E0,-9.741891632E0,-8.566685486E-1,1.027402003E1
1.619713483E1,-2.921175385E0,-9.053772583E0,-2.652484131E-1,9.517059437E0
1.620709383E1,-2.570005646E0,-8.429720306E0,1.752854919E-1,8.814524290E0
1.621705183E1,-2.059417419E0,-7.193441162E0,4.575984192E-1,7.496411953E0
1.622701083E1,-1.362317047E0,-5.977519684E0,5.418731689E-1,6.154695430E0
1.623696983E1,-1.003662872E0,-5.473068695E0,6.864724731E-1,5.606519826E0
1.624692883E1,-1.128203888E0,-5.718258820E0,7.717950439E-1,5.879370335E0
1.625688783E1,-1.257984009E0,-6.226751404E0,9.916877747E-1,6.429494650E0
1.626684683E1,-1.472188568E0,-6.369255066E0,1.356030121E0,6.676343832E0
1.627680583E1,-1.228495331E0,-6.568640442E0,1.621128845E0,6.876357812E0
1.628676483E1,-1.386716309E0,-7.266339569E0,1.839225311E0,7.622691296E0
1.629672383E1,-1.310524750E0,-7.639962616E0,1.976190491E0,7.999489531E0
1.630668283E1,-1.478924561E-1,-7.048991547E0,2.116598511E0,7.361395470E0
1.631664183E1,-8.113128662E-1,-7.621401215E0,2.464325409E0,8.050893414E0
1.632660083E1,-1.825453949E0,-9.040450287E0,3.113974457E0,9.734416286E0
1.633655983E1,-2.073488159E0,-1.087234085E1,4.020189972E0,1.177578346E1
1.634651883E1,-2.276016998E0,-1.337334000E1,4.773872681E0,1.438111040E1
1.635647783E1,-1.854792938E0,-1.539279053E1,5.119503937E0,1.632750984E1
1.636643683E1,-1.528471527E0,-1.711136673E1,5.097200317E0,1.791972510E1
1.637639583E1,-8.973838806E-1,-1.840362946E1,5.016667786E0,1.909622556E1
1.638635483E1,-6.735992432E-1,-1.927945816E1,5.546715546E0,2.007279991E1
1.639631383E1,8.205785980E0,-2.037667648E1,-2.522254944E0,2.211121069E1
1.640627283E1,1.627266083E1,-1.995590149E1,-1.783735703E1,3.132425259E1
1.641623183E1,8.437953186E0,-1.397568741E1,1.042432251E0,1.635865390E1
1.642619083E1,1.597792374E1,-1.299836975E1,6.658902740E0,2.164700092E1
1.643614883E1,2.042742096E1,-5.433401184E0,6.242019653E-2,2.113776885E1
1.644610783E1,1.626682297E1,-3.297343140E0,-5.022954712E0,1.734105173E1
1.645606683E1,1.059601547E1,-5.692212982E0,-4.330345001E0,1.278392429E1
1.646602583E1,1.233869156E1,-3.446732483E0,-2.334245911E0,1.302198058E1
1.647598483E1,7.519762573E0,-4.418811035E0,-2.934797058E0,9.202486289E0
1.648594383E1,5.836363220E0,-5.864953766E0,-2.126328278E0,8.542955593E0
1.649590283E1,4.449497223E0,-7.276668091E0,-4.312532043E-1,8.540134856E0
1.650586183E1,3.238216095E0,-8.353229370E0,9.620494080E-1,9.010439692E0
1.651582083E1,2.793341217E0,-8.984167328E0,1.849853210E0,9.588533497E0
