"Time (s)","Acceleration x (m/s^2)","Acceleration y (m/s^2)","Acceleration z (m/s^2)","Absolute acceleration (m/s^2)"
2.455458278E-3,-1.112935638E0,2.951262817E0,9.474248199E0,9.985487314E0
1.249245834E-2,-1.175206146E0,2.781665497E0,9.558223572E0,1.002389197E1
2.252945828E-2,-1.249002686E0,2.663411407E0,9.582173767E0,1.002356335E1
3.256645834E-2,-1.286724243E0,2.592908020E0,9.686207428E0,1.010947306E1
4.260345828E-2,-1.312770081E0,2.533481598E0,9.837243347E0,1.024271697E1
5.264045834E-2,-1.239721985E0,2.563269653E0,9.786199493E0,1.019200483E1
6.267745828E-2,-1.052162018E0,2.700983276E0,9.635313263E0,1.006188935E1
7.271445834E-2,-8.946894836E-1,2.800825653E0,9.457333374E0,9.903850168E0
8.275145828E-2,-6.514453125E-1,2.915187836E0,9.387129364E0,9.850933905E0
9.278845834E-2,-5.047503662E-1,3.102747803E0,9.188492432E0,9.711344398E0
1.028254583E-1,-6.459068298E-1,3.084635468E0,8.999884644E0,9.535727303E0
1.128624583E-1,-6.999444580E-1,2.951113129E0,9.010362854E0,9.507135726E0
1.228994583E-1,-7.283853149E-1,2.808310089E0,9.201215973E0,9.647773116E0
1.329364583E-1,-8.083190918E-1,2.631078644E0,9.517059174E0,9.907086852E0
1.429734583E-1,-9.493258667E-1,2.487527161E0,9.819280701E0,1.017385298E1
1.530104583E-1,-1.001716919E0,2.385589142E0,1.010503647E1,1.043102269E1
1.630474583E-1,-9.467811584E-1,2.411485291E0,1.024813889E1,1.057052536E1
1.730844583E-1,-8.910969543E-1,2.497256927E0,1.021460861E1,1.055313105E1
1.831214583E-1,-8.156538391E-1,2.605332184E0,1.007943970E1,1.044261230E1
1.931584583E-1,-6.878196716E-1,2.725981293E0,9.855505371E0,1.024866118E1
2.031954583E-1,-6.077362061E-1,2.869083710E0,9.588610382E0,1.002708500E1
2.132324583E-1,-5.433700562E-1,2.995720367E0,9.284143524E0,9.770614746E0
2.232694583E-1,-5.120851135E-1,3.083587646E0,8.973240051E0,9.502093504E0
2.333064583E-1,-5.340893555E-1,3.114722900E0,8.834628296E0,9.382825124E0
2.433424583E-1,-6.497987366E-1,3.059038696E0,8.872349854E0,9.407366691E0
2.533794583E-1,-7.408094788E-1,2.989134064E0,8.954978027E0,9.469707102E0
2.634164583E-1,-8.430468750E-1,2.898572388E0,9.055119781E0,9.545032435E0
2.734534583E-1,-9.798623657E-1,2.824626160E0,9.253756714E0,9.724744548E0
2.834904583E-1,-1.015488281E0,2.809208221E0,9.384734344E0,9.848660112E0
2.935274583E-1,-9.463320923E-1,2.828218689E0,9.411678314E0,9.872894918E0
3.035644583E-1,-8.598120117E-1,2.885998535E0,9.374705200E0,9.846489823E0
3.136014583E-1,-7.857160950E-1,2.907104645E0,9.272318115E0,9.749076388E0
3.236384583E-1,-7.397616577E-1,2.924019470E0,9.188791809E0,9.671144301E0
3.336754583E-1,-7.457492065E-1,2.953358459E0,9.073980560E0,9.571603381E0
3.437124583E-1,-9.360035706E-1,2.909050598E0,9.120084686E0,9.618452201E0
3.537494583E-1,-1.217268677E0,2.691253510E0,9.260343018E0,9.720007268E0
3.637864583E-1,-1.461560669E0,2.499202881E0,9.383686523E0,9.820170436E0
3.738234583E-1,-1.620081024E0,2.146536255E0,9.536668396E0,9.908598514E0
3.838604583E-1,-1.533111877E0,1.338666229E0,9.727371826E0,9.938019015E0
3.938974583E-1,-9.728269958E-1,2.641706543E0,9.593699799E0,9.998203921E0
4.039344583E-1,-7.101232910E-1,2.950514374E0,9.115144958E0,9.607063952E0
4.139714583E-1,-7.506889343E-1,2.649340668E0,8.804241486E0,9.224814794E0
4.240084583E-1,-6.777905273E-1,2.602338409E0,8.756939850E0,9.160543692E0
4.340454583E-1,-6.849755859E-1,2.474953308E0,9.049581299E0,9.406886154E0
4.440824583E-1,-2.242935791E0,6.548881531E-1,9.973011017E0,1.024307513E1
4.541194583E-1,-2.327809296E0,9.922865295E-1,1.001776794E1,1.033242485E1
4.641564583E-1,-4.933740234E-1,2.176473999E0,9.969268799E0,1.021600594E1
4.741934583E-1,-1.019380188E0,1.056203613E0,9.532028046E0,9.644390116E0
4.842304583E-1,-1.177451477E0,1.030157776E0,9.372310181E0,9.501990062E0
4.942674583E-1,-1.432071991E0,1.059197388E0,9.610614624E0,9.774284769E0
5.043044583E-1,-1.611848145E0,7.674540710E-1,9.733059998E0,9.895428091E0
5.143414583E-1,-8.762777710E-1,1.185684357E0,9.735005951E0,9.846017011E0
5.243784583E-1,-5.207670593E-1,1.597028961E0,9.588161316E0,9.734194227E0
5.344154583E-1,-3.893403625E-1,1.853146362E0,9.212742004E0,9.405336389E0
5.444524583E-1,-4.857398987E-1,2.205363922E0,8.883277130E0,9.165816158E0
5.544894583E-1,-6.411167908E-1,2.382445679E0,8.812025299E0,9.150894384E0
5.645264583E-1,-7.538323975E-1,2.448757782E0,9.139843597E0,9.492176723E0
5.745634583E-1,-1.123563538E0,2.748135223E0,9.240284729E0,9.705539867E0
5.846004583E-1,-1.368903351E0,3.058439941E0,9.461075592E0,1.003692695E1
5.946374583E-1,-2.340233459E0,3.484454041E0,8.884774017E0,9.826358529E0
6.046744583E-1,-4.325105896E0,3.907923431E0,9.367071075E0,1.103269809E1
6.147114583E-1,-4.268224182E0,5.676795044E0,7.295828247E0,1.018198652E1
6.247484583E-1,-2.080673218E0,7.147187347E0,6.777755585E0,1.006724683E1
6.347854583E-1,-1.277593231E0,6.896608429E0,6.861281891E0,9.811862284E0
6.448224583E-1,-4.507127380E-1,5.605543213E0,7.496710510E0,9.371548707E0
6.548594583E-1,-9.542655945E-1,4.592899017E0,8.472381592E0,9.684347890E0
6.648964583E-1,-1.751208344E0,4.437522125E0,8.892857208E0,1.009164222E1
6.749334583E-1,-2.151326294E0,4.170776825E0,8.773555298E0,9.949816918E0
6.849704583E-1,-1.573078766E0,3.425626373E0,8.786129150E0,9.560625414E0
6.950064583E-1,-1.311123505E0,2.760260010E0,8.471633148E0,9.005922960E0
7.050434583E-1,-1.430724792E0,2.411036224E0,7.995323639E0,8.472618792E0
7.150804583E-1,-1.606159973E0,2.241139526E0,7.933951263E0,8.399407056E0
7.251174583E-1,-1.552571411E0,2.139650574E0,7.454947357E0,7.909792833E0
7.351544583E-1,-1.483564911E0,2.039658508E0,6.894961853E0,7.341775714E0
7.451914583E-1,-1.362915802E0,1.779499512E0,6.362219696E0,6.745516841E0
7.552284583E-1,-1.157991943E0,1.455423431E0,6.264622650E0,6.534883293E0
7.652654583E-1,-5.969586182E-1,1.481618958E0,6.337970123E0,6.536162453E0
7.753024583E-1,-7.345225525E-1,1.204994202E0,5.928272095E0,6.093926849E0
7.853394583E-1,-7.494914246E-1,8.738827515E-1,5.459746399E0,5.579806377E0
7.953764583E-1,-1.933080139E0,8.608598328E-1,5.382357330E0,5.783394238E0
8.054134583E-1,-3.026705933E0,5.168751526E-1,5.088967438E0,5.943542572E0
8.154504583E-1,-2.773133240E0,1.526824951E-1,5.812712402E0,6.442142918E0
8.254874583E-1,-2.972967682E0,-4.209246826E-1,6.008804626E0,6.717249993E0
8.355244583E-1,-2.252066803E0,-3.438349915E-1,7.281458130E0,7.629525535E0
8.455614583E-1,-2.221380615E0,-9.759704590E-1,7.753875732E0,8.124631625E0
8.555984583E-1,-1.885179749E0,-1.047970734E0,8.370144196E0,8.643579073E0
8.656354583E-1,-1.438059540E0,-7.556286621E-1,9.487420807E0,9.625494454E0
8.756724583E-1,-1.183738403E0,-4.164340210E-1,1.034947815E1,1.042527467E1
8.857094583E-1,-1.317709808E0,-2.802172852E-1,1.074330917E1,1.082744535E1
8.957464583E-1,-1.723216553E0,-6.283932495E-1,1.094044922E1,1.109314124E1
9.057834583E-1,-2.328707428E0,-1.152902527E0,1.113639175E1,1.143552726E1
9.158204583E-1,-2.889740753E0,-1.621727600E0,1.122231308E1,1.170132099E1
9.258574583E-1,-3.035088501E0,-1.710043945E0,1.123952728E1,1.176702962E1
9.358944583E-1,-2.731669464E0,-1.488205261E0,1.109986771E1,1.152752515E1
9.459314583E-1,-2.092798004E0,-1.197360077E0,1.060649368E1,1.087709441E1
9.559684583E-1,-1.212927704E0,-7.701484680E-1,1.032343231E1,1.042293514E1
9.660054583E-1,-5.044509888E-1,-4.185296631E-1,9.740843811E0,9.762872325E0
9.760424583E-1,-7.723937988E-2,-3.107537842E-1,8.974437561E0,8.980148293E0
9.860794583E-1,1.046324158E-1,-1.287322998E-1,8.306376801E0,8.308033191E0
9.961164583E-1,2.005828857E-2,7.888595581E-2,7.928263092E0,7.928680911E0
1.006153458E0,-3.656895447E-1,3.362008667E-1,7.960595856E0,7.976079629E0
1.016190458E0,-8.898994446E-1,4.614903259E-1,7.760761414E0,7.825235591E0
1.026227458E0,-1.469943237E0,6.346801758E-2,7.366930389E0,7.512418031E0
1.036264458E0,-1.776655426E0,-5.530998230E-1,7.231312408E0,7.466880411E0
1.046301458E0,-1.654808807E0,-1.132844238E0,7.171736298E0,7.446846969E0
1.056338458E0,-1.085542603E0,-1.444945221E0,7.274422760E0,7.495565084E0
1.066375458E0,-4.721182251E-1,-9.602531433E-1,7.809410248E0,7.882377188E0
1.076412458E0,4.939727783E-2,-7.768844604E-2,8.517587585E0,8.518085105E0
1.086449458E0,-1.236428833E-1,3.338058472E-1,9.035660248E0,9.042669408E0
1.096486458E0,-1.030756531E0,3.517684937E-2,9.270671539E0,9.327864023E0
1.106523458E0,-2.108814697E0,-6.601272583E-1,9.566606140E0,9.818493798E0
1.116559458E0,-3.162024536E0,-1.695075073E0,9.795330505E0,1.043169106E1
1.126596458E0,-3.431164856E0,-2.322270813E0,1.061517563E1,1.139507734E1
1.136633458E0,-2.832559662E0,-1.993554382E0,1.116213821E1,1.168721450E1
1.146670458E0,-2.279908905E0,-2.165696411E0,1.040067169E1,1.086564297E1
1.156707458E0,-1.637744293E0,-1.909429321E0,1.023152344E1,1.053623265E1
1.166744458E0,-1.198557587E0,-1.404978333E0,1.035351974E1,1.051693280E1
1.176781458E0,-1.359023895E0,-1.321751404E0,1.067624863E1,1.084325862E1
1.186818458E0,-1.859433289E0,-1.631756744E0,1.024559418E1,1.054003426E1
1.196855458E0,-2.228865051E0,-1.718426514E0,1.004171814E1,1.042865918E1
1.206892458E0,-2.371967468E0,-1.954186249E0,1.046503784E1,1.090697440E1
1.216929458E0,-2.528392181E0,-2.694546661E0,1.090796677E1,1.151681760E1
1.226966458E0,-2.326611786E0,-3.192411346E0,1.091245743E1,1.160544440E1
1.237003458E0,-1.847607880E0,-3.087329865E0,1.088491470E1,1.146414535E1
1.247040458E0,-1.386716309E0,-2.961591339E0,1.091051147E1,1.139005119E1
1.257077458E0,-1.182540894E0,-2.890938263E0,1.105166794E1,1.148456752E1
1.267114458E0,-1.255738678E0,-2.978955231E0,1.113160172E1,1.159153185E1
1.277151458E0,-1.517244873E0,-3.241958313E0,1.128637985E1,1.184038411E1
1.287188458E0,-1.968256989E0,-3.701802063E0,1.178559174E1,1.250909855E1
1.297225458E0,-2.479743347E0,-4.391268311E0,1.218735626E1,1.318954196E1
1.307262458E0,-2.771037598E0,-4.970413971E0,1.242027191E1,1.366187464E1
1.317299458E0,-2.768343201E0,-5.190606079E0,1.257220596E1,1.388043509E1
1.327336458E0,-2.760260010E0,-5.156776428E0,1.255633896E1,1.385182394E1
1.337373458E0,-2.734513550E0,-5.028493195E0,1.222582626E1,1.349941243E1
1.347410458E0,-2.637515259E0,-4.705015869E0,1.179741714E1,1.297199724E1
1.357447458E0,-2.607577515E0,-4.347409515E0,1.144834305E1,1.252054266E1
1.367484458E0,-2.754721527E0,-4.201912079E0,1.120509888E1,1.228001615E1
1.377521458E0,-3.083138580E0,-4.346511383E0,1.102981339E1,1.224968114E1
1.387558458E0,-3.426374817E0,-4.623435516E0,1.109462860E1,1.249827925E1
1.397595458E0,-3.653302917E0,-4.896467743E0,1.111019623E1,1.267905670E1
1.407632458E0,-3.603456573E0,-4.818330231E0,1.092458221E1,1.247187644E1
1.417669458E0,-3.387755127E0,-4.386927338E0,1.067205734E1,1.202559039E1
1.427706458E0,-3.042423248E0,-3.941902771E0,1.029514114E1,1.143612119E1
1.437743458E0,-2.758763123E0,-3.677851868E0,9.800868988E0,1.082563630E1
1.447780458E0,-2.605781250E0,-3.667972412E0,9.332043915E0,1.036007535E1
1.457817458E0,-2.578388214E0,-3.649560699E0,9.077273712E0,1.011752327E1
1.467854458E0,-2.741399231E0,-3.582350464E0,9.003926239E0,1.007070962E1
1.477891458E0,-2.934647369E0,-3.556604004E0,8.984466705E0,1.009862511E1
1.487927458E0,-2.990780640E0,-3.501368866E0,9.059161377E0,1.016232048E1
1.497964458E0,-2.829565887E0,-3.334915009E0,9.189091187E0,1.017681178E1
1.508001458E0,-2.655477905E0,-3.222648468E0,9.093589783E0,1.000651794E1
1.518038458E0,-2.528392181E0,-3.092119904E0,9.008566589E0,9.854351552E0
1.528075458E0,-2.315834198E0,-2.919379120E0,8.989406433E0,9.731150523E0
1.538112458E0,-2.131268005E0,-2.872526550E0,8.841364288E0,9.537475272E0
1.548149458E0,-1.984872437E0,-2.771786041E0,8.773704987E0,9.412779379E0
1.558186458E0,-1.938019867E0,-2.571951599E0,8.612190857E0,9.194600991E0
1.568223458E0,-2.059716797E0,-2.487227783E0,8.597970428E0,9.184434159E0
1.578260458E0,-2.222428436E0,-2.539319458E0,8.705746307E0,9.336881183E0
1.588297458E0,-2.290836182E0,-2.700534210E0,8.866362305E0,9.547418287E0
1.598334458E0,-1.986369324E0,-2.585273895E0,9.384884033E0,9.935056745E0
1.608371458E0,-1.735191650E0,-2.493664398E0,9.263037415E0,9.748492926E0
1.618408458E0,-1.720073090E0,-2.259251862E0,9.491612091E0,9.907248382E0
1.628445458E0,-1.848655701E0,-1.877545624E0,9.604926453E0,9.959785019E0
1.638482458E0,-2.315983887E0,-1.818418579E0,9.169781342E0,9.630956201E0
1.648519458E0,-2.779120789E0,-1.914668427E0,8.800798645E0,9.425684290E0
1.658556458E0,-3.081492004E0,-1.957180023E0,8.461005249E0,9.214920317E0
1.668593458E0,-3.160078583E0,-2.131417694E0,8.124804382E0,8.974490754E0
1.678630458E0,-2.903212738E0,-2.276765442E0,7.929011536E0,8.745371862E0
1.688667458E0,-2.671644287E0,-2.308200073E0,7.883805542E0,8.638278798E0
1.698705708E0,-2.473007355E0,-2.105072479E0,8.460107117E0,9.062036633E0
1.708742708E0,-2.556833038E0,-1.747166748E0,8.919052734E0,9.441371114E0
1.718779708E0,-2.737956390E0,-1.571881256E0,8.869505768E0,9.414634801E0
1.728816708E0,-3.038830719E0,-1.776206360E0,8.611741791E0,9.303305748E0
1.738853708E0,-3.052302704E0,-2.149679718E0,8.122259674E0,8.939170929E0
1.748890708E0,-2.890040131E0,-2.789449310E0,7.382947083E0,8.404835931E0
1.758927708E0,-2.439327393E0,-3.097808075E0,7.256310425E0,8.258375989E0
1.768964708E0,-1.668131104E0,-2.872376862E0,7.396419067E0,8.108034610E0
1.779001708E0,-9.837542725E-1,-2.761607208E0,7.296726379E0,7.863616388E0
1.789038708E0,-5.252577209E-1,-2.658022614E0,7.274871826E0,7.763036775E0
1.799075708E0,-2.282752991E-1,-2.816692657E0,7.511829071E0,8.025798598E0
1.809112708E0,-1.239422607E-1,-3.381318512E0,8.094417572E0,8.773156353E0
1.819149708E0,-8.008346558E-2,-3.985312500E0,9.058113556E0,9.896390770E0
1.829186708E0,5.126838684E-1,-3.921245728E0,1.016072067E1,1.090317648E1
1.839222708E0,9.894424438E-1,-4.368216248E0,9.255253601E0,1.028202455E1
1.849259708E0,1.096320190E0,-4.713398438E0,8.356522522E0,9.656578662E0
1.859296708E0,1.042282562E0,-4.940476227E0,7.818840637E0,9.307466207E0
1.869333708E0,1.800006866E0,-5.562732239E0,8.083639984E0,9.976434738E0
1.879370708E0,2.342478790E0,-5.665269012E0,8.230933685E0,1.026307698E1
1.889407708E0,1.677711182E0,-4.179608459E0,9.556127930E0,1.056425211E1
1.899444708E0,6.502478027E-1,-3.458707581E0,9.658814392E0,1.027998910E1
1.909481708E0,3.143463135E-3,-4.593797150E0,8.658893738E0,9.802011166E0
1.919518708E0,1.121168518E-1,-5.450615387E0,8.039182434E0,9.713404784E0
1.929555708E0,2.790197754E-1,-6.161337433E0,8.498726807E0,1.050087084E1
1.939592708E0,-3.397933960E-1,-6.566095734E0,9.107810211E0,1.123304409E1
1.949629708E0,-7.047344971E-1,-6.428382111E0,1.020802231E1,1.208405837E1
1.959666708E0,-3.939807129E-1,-5.324876862E0,1.126108246E1,1.246280516E1
1.969703708E0,-1.875599670E-1,-4.628375244E0,1.073986633E1,1.169622867E1
1.979740708E0,-3.296145630E-1,-4.695884857E0,9.796677704E0,1.086898682E1
1.989777708E0,-8.027806091E-1,-4.991669769E0,8.771309967E0,1.012408526E1
1.999814708E0,-9.970765686E-1,-5.494474182E0,7.927215271E0,9.696605085E0
2.009851708E0,-2.930905151E-1,-5.500461731E0,7.574099579E0,9.365253106E0
2.019888708E0,1.031355286E0,-5.253924408E0,7.614216156E0,9.308259938E0
2.029925708E0,1.956281891E0,-4.703518982E0,8.035889282E0,9.514496634E0
2.039962708E0,1.684297485E0,-4.503983917E0,8.500672760E0,9.766481788E0
2.049999708E0,2.523751831E-1,-4.572391663E0,8.863069153E0,9.976194342E0
2.060036708E0,-1.829345856E0,-5.125491486E0,8.940009155E0,1.046618044E1
2.070073708E0,-3.398682404E0,-5.460494843E0,8.352630615E0,1.054203416E1
2.080110708E0,-4.068988495E0,-5.481750641E0,7.117698669E0,9.862448571E0
2.090147708E0,-3.817511444E0,-5.266797638E0,6.008056183E0,8.854902037E0
2.100184708E0,-2.751877441E0,-4.615801392E0,5.373226318E0,7.599342933E0
2.110221708E0,-1.692230988E0,-4.378993835E0,4.512366486E0,6.511580762E0
2.120258708E0,-7.051835632E-1,-4.558021545E0,3.754642181E0,5.947283596E0
2.130295708E0,-1.451980591E-1,-5.261708221E0,3.602109375E0,6.378232344E0
2.140332708E0,-5.668711853E-1,-7.384593658E0,4.176165619E0,8.502583473E0
2.150369708E0,-1.026864624E0,-9.574689331E0,5.754633179E0,1.121806266E1
2.160406708E0,-2.399510193E-1,-1.214244965E1,9.336384888E0,1.531877093E1
2.170443708E0,2.193538513E0,-1.169488037E1,8.846304016E0,1.482696641E1
2.180479708E0,3.830384674E0,-1.231159790E1,7.212601318E0,1.477392661E1
2.190516708E0,3.083437958E0,-1.120734421E1,6.938072205E0,1.353694943E1
2.200553708E0,1.731599121E0,-9.398954773E0,6.856641541E0,1.176232628E1
2.210590708E0,2.030228119E0,-9.666149139E0,6.934180298E0,1.206810349E1
2.220627708E0,1.822460175E0,-9.205107880E0,7.458090820E0,1.198659630E1
2.230664708E0,2.008822632E0,-9.355994110E0,6.265520782E0,1.143795195E1
2.240701708E0,1.628164215E0,-9.775272217E0,5.111420746E0,1.115049271E1
2.250738708E0,1.487456818E0,-1.022119492E1,4.646188202E0,1.132574139E1
2.260775708E0,2.799029388E0,-1.021820114E1,4.449646912E0,1.149110777E1
2.270812708E0,4.460723877E0,-8.677455139E0,6.101911011E0,1.150780618E1
2.280849708E0,4.999752960E0,-6.626569977E0,7.314539337E0,1.106397058E1
2.290886708E0,3.253933411E0,-6.341712341E0,6.870861969E0,9.900209203E0
2.300923708E0,1.748513947E0,-6.122568054E0,5.745651855E0,8.576459400E0
2.310960708E0,1.388362885E0,-5.503904572E0,5.099595337E0,7.630621838E0
2.320997708E0,2.096689911E0,-5.361849976E0,4.852758636E0,7.529595615E0
2.331034708E0,3.210373993E0,-5.859115906E0,4.577481079E0,8.098708132E0
2.341071708E0,4.215384064E0,-7.604187012E0,5.167853394E0,1.011433792E1
2.351108708E0,5.757626953E0,-8.830586700E0,5.840853882E0,1.205176766E1
2.361145708E0,7.063511353E0,-8.875193939E0,7.243886261E0,1.345868301E1
2.371182708E0,5.955515442E0,-8.409961395E0,7.281757507E0,1.261822520E1
2.381219708E0,5.042713623E0,-8.503367157E0,7.275021515E0,1.227445118E1
2.391256708E0,4.068988495E0,-8.271349640E0,6.015241241E0,1.100704408E1
2.401293708E0,3.654799805E0,-7.808063049E0,4.872068481E0,9.902548232E0
2.411330708E0,3.769012299E0,-7.633975067E0,4.364923096E0,9.567422990E0
2.421367708E0,3.811374207E0,-8.412955170E0,3.885170746E0,1.001992713E1
2.431404708E0,4.012555847E0,-9.107211456E0,4.156107330E0,1.078494938E1
2.441441708E0,3.747008057E0,-8.944050751E0,3.960763550E0,1.047491103E1
2.451478708E0,4.719835052E0,-7.956105194E0,3.901037750E0,1.003964881E1
2.461515708E0,5.009033661E0,-6.641838226E0,3.557801514E0,9.047783422E0
2.471552708E0,3.862118683E0,-6.277196503E0,2.688259735E0,7.845119314E0
2.481589708E0,2.964435425E0,-6.328988800E0,2.512225800E0,7.426658407E0
2.491626708E0,2.941682739E0,-6.154302063E0,2.806064758E0,7.375834234E0
2.501663708E0,3.009491730E0,-6.419849854E0,3.062930603E0,7.723539117E0
2.511700708E0,2.968027954E0,-6.985523529E0,3.348087616E0,8.295566261E0
2.521736708E0,3.275039520E0,-7.511080627E0,3.645519104E0,8.968390357E0
2.531773708E0,4.345762939E0,-8.819509735E0,3.912114716E0,1.058177911E1
2.541810708E0,4.261188812E0,-9.649982758E0,3.304228821E0,1.105431253E1
2.551847708E0,6.030808868E0,-9.919572144E0,4.045936432E0,1.229382645E1
2.561884708E0,4.306993561E0,-9.692793732E0,3.769910431E0,1.125667218E1
2.571921708E0,5.102738800E0,-9.834399261E0,4.392615509E0,1.191840690E1
2.581958708E0,5.237608337E0,-9.248966675E0,3.995641022E0,1.135522227E1
2.591995708E0,4.692442017E0,-9.296717377E0,3.409010925E0,1.095761477E1
2.602032708E0,3.489094391E0,-9.553433533E0,2.911894684E0,1.057927231E1
2.612069708E0,2.227368164E0,-9.685758362E0,2.371219025E0,1.021752238E1
2.622106708E0,2.677781525E0,-1.035426819E1,2.137105865E0,1.090635618E1
2.632143708E0,2.559976501E0,-1.079315552E1,2.242037659E0,1.131690853E1
2.642180708E0,3.167712708E0,-1.036938675E1,1.788929901E0,1.098903342E1
2.652217708E0,4.877756653E0,-8.620274048E0,4.188290405E-1,9.913478319E0
2.662254708E0,4.126019897E0,-6.824757843E0,1.102906494E0,8.050947928E0
2.672291708E0,3.411256256E0,-6.013145599E0,1.130598907E0,7.005201149E0
2.682328708E0,5.094356232E0,-6.899153137E0,7.328759766E-1,8.607432057E0
2.692365708E0,3.625909882E0,-8.354127502E0,1.360520782E0,9.208131493E0
2.702402333E0,3.311563568E0,-8.824449463E0,1.644629974E0,9.567767208E0
2.712439333E0,4.030518494E0,-8.316705322E0,2.063608704E0,9.469485077E0
2.722476333E0,4.043691101E0,-8.482410736E0,2.517764282E0,9.728405142E0
2.732513333E0,5.352569275E0,-8.079598389E0,2.042951660E0,9.904724098E0
2.742550333E0,5.613626404E0,-8.585995331E0,1.277144165E0,1.033746654E1
2.752587333E0,3.740870819E0,-8.976533203E0,2.385738831E0,1.001319193E1
2.762624333E0,5.100643158E0,-8.461154938E0,1.936522980E0,1.006766233E1
2.772661333E0,4.668491821E0,-7.877518616E0,2.241738281E0,9.427380651E0
2.782698333E0,4.354145508E0,-7.475305023E0,2.261646881E0,8.941689712E0
2.792735333E0,3.677851868E0,-7.725285187E0,1.621278534E0,8.708339087E0
2.802772333E0,2.945574646E0,-7.904612274E0,1.474134521E0,8.563432594E0
2.812809333E0,2.595303040E0,-8.478518829E0,1.016985168E0,8.924972730E0
2.822846333E0,2.466720428E0,-8.355175323E0,1.145118713E0,8.786635376E0
2.832883333E0,2.743195496E0,-7.100334778E0,2.834505615E0,8.122456375E0
2.842920333E0,3.092868347E0,-7.835755463E0,2.650089111E0,8.831074147E0
2.852956333E0,3.527265015E0,-8.291707306E0,3.883524170E0,9.812021632E0
2.862993333E0,4.750521240E0,-8.894803162E0,3.658092957E0,1.072691099E1
2.873030333E0,5.819747772E0,-9.480684814E0,3.629652100E0,1.170159062E1
2.883067333E0,5.893694000E0,-9.391620026E0,2.525398407E0,1.137171020E1
2.893104333E0,5.218747559E0,-1.009889923E1,2.858605499E0,1.172154926E1
2.903141333E0,4.695585480E0,-1.073432785E1,2.782413940E0,1.204226493E1
2.913178333E0,3.545676727E0,-1.027717850E1,8.663983154E-1,1.090609313E1
2.923215333E0,1.495839386E0,-9.138496399E0,-6.833290100E-1,9.285288926E0
2.933252333E0,-1.247954865E0,-8.409063263E0,-1.167572021E-2,8.501168898E0
2.943289333E0,-2.762056274E0,-8.304281158E0,1.688339081E0,8.912941673E0
2.953326333E0,-1.954186249E0,-7.869435425E0,2.547103271E0,8.499093650E0
2.963363333E0,1.460812225E0,-7.398963776E0,1.187929688E0,7.634776634E0
2.973400333E0,3.011437683E0,-7.222780151E0,5.465135193E-1,7.844487686E0
2.983437333E0,3.557053070E0,-7.136709137E0,1.374142456E0,8.091570388E0
2.993474333E0,3.597768402E0,-7.436685333E0,1.778900757E0,8.450604364E0
3.003511333E0,2.368674316E0,-8.106692047E0,2.139650574E0,8.712472585E0
3.013548333E0,2.525548096E0,-7.793842621E0,2.046843567E0,8.444639991E0
3.023585333E0,3.341052246E0,-7.554041290E0,1.501677246E0,8.395308480E0
3.033622333E0,3.942651215E0,-8.230933685E0,1.634002075E0,9.271608852E0
3.043659333E0,4.097878418E0,-9.320667572E0,1.522633667E0,1.029494365E1
3.053696333E0,3.900438995E0,-1.019724472E1,2.418820038E0,1.118248249E1
3.063733333E0,1.338815918E0,-1.058014847E1,2.577190704E0,1.097150316E1
3.073770333E0,2.213297424E0,-1.102532272E1,1.306632843E0,1.132094148E1
3.083807333E0,4.017345886E0,-1.079105988E1,9.377998352E-1,1.155272737E1
3.093844333E0,3.392844543E0,-9.725126495E0,4.751119995E-1,1.031092677E1
3.103881333E0,3.132535858E0,-9.206155701E0,9.235794067E-1,9.768269172E0
3.113918333E0,2.350112915E-1,-9.394015045E0,1.650168457E0,9.540744463E0
3.123955333E0,-1.589544525E0,-1.025292892E1,-2.552192688E-1,1.037855193E1
3.133992333E0,-3.357518005E-1,-1.033435959E1,-1.623972931E0,1.046656608E1
3.144029333E0,1.962419128E-1,-9.662706299E0,-2.086660767E0,9.887393846E0
3.154066333E0,9.166937256E-1,-9.218130798E0,-1.750459900E0,9.427532692E0
3.164103333E0,2.005230103E0,-9.312434692E0,-4.333488464E-1,9.535731691E0
3.174140333E0,2.661166077E0,-1.103804626E1,5.206173706E-1,1.136623564E1
3.184177333E0,2.794239349E0,-9.970017242E0,-1.925895081E0,1.053176572E1
3.194213333E0,3.279829559E0,-7.045099640E0,-1.847607880E0,7.987763501E0
3.204250333E0,2.994822235E0,-5.364993439E0,-9.566606140E-1,6.218304781E0
3.214287333E0,3.048111420E0,-5.185666351E0,4.442761230E-1,6.031542092E0
3.224324333E0,2.919079742E0,-5.029990082E0,1.667981415E0,6.050123037E0
3.234361333E0,2.258653107E0,-4.811145172E0,1.810036011E0,5.614700534E0
3.244398333E0,1.365909576E0,-4.962181091E0,1.717229004E0,5.425663610E0
3.254435333E0,6.863227844E-1,-6.421496429E0,-7.155120850E-2,6.458465370E0
3.264472333E0,1.393901367E0,-6.914122009E0,1.664837952E0,7.247049716E0
3.274509333E0,2.020198975E0,-5.462291107E0,2.426304474E0,6.309103061E0
3.284546333E0,1.672472076E0,-4.675826569E0,2.123933258E0,5.401074840E0
3.294583333E0,9.937834167E-1,-5.411696320E0,-9.154962158E-1,5.577830748E0
3.304620333E0,1.421294403E0,-5.844745789E0,9.822573853E-1,6.094748615E0
3.314657333E0,1.544488220E0,-6.412515106E0,4.629872131E-1,6.612121521E0
3.324694333E0,3.069965973E0,-9.873018951E0,6.352789307E-1,1.035880175E1
3.334731333E0,4.812642059E0,-2.226889160E1,-1.239422607E-1,2.278333642E1
3.344768333E0,6.498286743E0,-2.826317642E1,1.878593445E-1,2.900120969E1
3.358569333E0,3.691174164E0,-2.652244629E1,8.617579651E-1,2.679193070E1
3.368606333E0,9.072633362E-1,-2.373359573E1,5.201683044E-1,2.375662578E1
3.378643333E0,-5.577401733E-1,-1.715133362E1,-1.285227356E0,1.720846095E1
3.388680333E0,-5.405259705E-1,-1.142439285E1,-2.105521545E0,1.162936548E1
3.398717333E0,1.481918335E-1,-8.175698547E0,-2.584375763E0,8.575721873E0
3.408754333E0,1.394500122E0,-6.735543365E0,-1.875300293E0,7.129440806E0
3.418791333E0,1.973645782E0,-5.458997955E0,-5.801934814E-1,5.833743295E0
3.428828333E0,2.294129333E0,-5.378166046E0,5.655239868E-1,5.874309900E0
3.438865333E0,2.012265472E0,-6.313271484E0,1.640139313E0,6.826175073E0
3.448902333E0,1.595232697E0,-7.939639435E0,2.008523254E0,8.343668700E0
3.458939333E0,1.733994141E0,-9.753866730E0,2.364033966E0,1.018495501E1
3.468976333E0,2.003882904E0,-1.072459808E1,1.648970947E0,1.103411328E1
3.479013333E0,2.038161621E0,-1.076845688E1,6.453080750E-1,1.097862418E1
3.489050333E0,1.916315002E0,-1.054557037E1,3.382965088E-1,1.072360771E1
3.499087333E0,2.170187073E0,-1.043375290E1,2.595602417E-1,1.066021965E1
3.509124333E0,2.471660156E0,-1.032462982E1,7.095245361E-2,1.061659640E1
3.519161333E0,2.741698608E0,-1.026939468E1,1.049317932E-1,1.062959967E1
3.529198333E0,2.974165192E0,-1.029963181E1,6.466552734E-2,1.072064623E1
3.539235333E0,3.034340057E0,-1.037267990E1,-2.335144043E-1,1.080991382E1
3.549271333E0,2.826123047E0,-1.064092209E1,-6.074368286E-1,1.102656673E1
3.559308333E0,2.542462921E0,-1.090347610E1,-6.429130554E-1,1.121442134E1
3.569345333E0,2.236349487E0,-1.069106781E1,-2.191442871E-1,1.092466083E1
3.579382333E0,2.020348663E0,-1.008183472E1,3.031196594E-1,1.028674300E1
3.589419333E0,1.447340240E0,-8.973389740E0,1.303639069E0,9.182373986E0
3.599456333E0,1.602567444E0,-8.823251953E0,1.866768036E0,9.159848271E0
3.609493333E0,1.671424255E0,-8.521030426E0,1.930535431E0,8.895424982E0
3.619530333E0,1.216520233E0,-9.216484222E0,1.776356049E0,9.464615349E0
3.629567333E0,1.290017395E0,-3.947141876E0,-4.989125061E-1,4.182461902E0
3.639604333E0,2.518063660E0,-1.413660278E0,-1.400787048E0,3.209561392E0
3.649641333E0,3.037633209E0,-6.461613007E0,4.035757599E0,8.201646027E0
3.659678333E0,2.761158142E0,-4.481231232E0,2.043101349E0,5.646210301E0
3.669715333E0,2.596500549E0,-5.220094757E0,-9.131011963E-3,5.830204778E0
3.679752333E0,2.051034851E0,-7.264094238E0,1.237027588E0,7.648793782E0
3.689789333E0,8.589138794E-1,-5.936205597E0,2.286644897E0,6.419113243E0
3.699826333E0,-2.248324585E-1,-4.375700684E0,3.313210144E0,5.493147328E0
3.709862458E0,-1.344504089E0,-3.142265625E0,3.943249969E0,5.218308617E0
3.719899458E0,-3.613485718E0,-2.045496368E0,5.012775879E0,6.509167108E0
3.729936458E0,-6.378086700E0,4.895569611E0,4.621489563E0,9.273875002E0
3.739973458E0,-3.127296753E0,-1.737661514E1,1.224289078E1,2.148523012E1
3.750010458E0,-5.645959167E0,-2.173659851E1,7.277416534E0,2.360757000E1
3.760047458E0,-2.273771667E0,-1.914249298E1,4.938081207E0,1.989949047E1
3.770084458E0,6.012546844E0,-1.784274582E1,-6.152805176E0,1.980836463E1
3.780121458E0,1.614123413E1,-1.656305695E1,-3.576377884E1,4.259016520E1
3.790158458E0,8.525521088E0,-2.113649643E1,4.305197296E0,2.319419572E1
3.800195458E0,-7.688012695E-1,-1.535461990E1,1.205054077E1,1.953384091E1
3.810232458E0,3.228636017E0,-1.190369614E1,8.606352997E0,1.503966037E1
3.820269458E0,4.884193268E0,-1.063643143E1,3.939058685E0,1.234929960E1
3.830306458E0,4.818330231E0,-8.559650116E0,-1.949396210E0,1.001419302E1
3.840343458E0,4.189188538E0,-7.524103546E0,-3.031196594E-1,8.617036399E0
3.850380458E0,4.815037079E0,-8.245154114E0,-1.406624908E0,9.651204177E0
3.860417458E0,7.080875244E0,-9.137747955E0,-7.221432953E0,1.363034577E1
3.870454458E0,8.235424347E0,-8.333320770E0,-3.599414978E0,1.225651816E1
3.880491458E0,7.641160126E0,-7.427404633E0,1.288969574E0,1.073383017E1
3.890528458E0,6.345304871E0,-7.880213013E0,1.888323212E0,1.029205595E1
3.900565458E0,8.096662903E0,-7.820786591E0,8.520281982E-1,1.128922518E1
3.910602458E0,7.601193237E0,-9.043743439E0,1.578617249E0,1.191887018E1
3.920639458E0,5.297483826E0,-9.549541626E0,2.075733490E0,1.111601321E1
3.930676458E0,4.198020172E0,-9.387877808E0,2.261347504E0,1.052944992E1
3.940713458E0,3.714974670E0,-8.993747406E0,2.595901794E0,1.007110894E1
3.950749458E0,3.232378235E0,-8.557554474E0,2.099234619E0,9.385456495E0
3.960786458E0,3.078348541E0,-8.337661743E0,9.345066833E-1,8.936785542E0
3.970823458E0,3.019670563E0,-8.316705322E0,1.607656860E-1,8.849397908E0
3.980860458E0,3.382516022E0,-8.101003876E0,3.653901672E-1,8.786420682E0
3.990897458E0,3.756438446E0,-7.904761963E0,5.420228577E-1,8.768687488E0
4.000934458E0,3.965703278E0,-7.821984100E0,6.911128235E-1,8.797037836E0
4.010971458E0,4.176614685E0,-7.774832153E0,9.568103027E-1,8.877365104E0
4.021008458E0,4.230053558E0,-7.899073792E0,1.154698792E0,9.034492192E0
4.031045458E0,4.517904968E0,-8.032745819E0,1.338217163E0,9.312749104E0
4.041082458E0,4.726421356E0,-8.421188049E0,1.714983673E0,9.807988377E0
4.051119458E0,4.882995758E0,-9.041348419E0,1.919308777E0,1.045339060E1
4.061156458E0,4.963228912E0,-9.624086609E0,1.785786438E0,1.097477642E1
4.071193458E0,5.033582611E0,-9.983638916E0,1.651216278E0,1.130205800E1
4.081230458E0,4.674179993E0,-9.688752136E0,1.511257324E0,1.086295426E1
4.091267458E0,4.235442352E0,-8.991352386E0,1.305734711E0,1.002438690E1
4.101304458E0,4.289030914E0,-8.233927460E0,7.708969116E-1,9.315987851E0
4.111341458E0,4.236490173E0,-7.568261719E0,4.848417664E-1,8.686858234E0
4.121378458E0,4.095932465E0,-7.269183655E0,3.046165466E-1,8.349280508E0
4.131415458E0,3.749702454E0,-7.166497192E0,5.415737915E-1,8.106309436E0
4.141452458E0,3.566932526E0,-7.289840698E0,8.373587036E-1,8.158796152E0
4.151489458E0,3.975283356E0,-7.940836945E0,1.001567230E0,8.936604839E0
4.161526458E0,4.522096252E0,-8.683891754E0,1.188229065E0,9.862617240E0
4.171563458E0,5.003495178E0,-9.308991852E0,1.551074524E0,1.068167241E1
4.181600458E0,5.929918671E0,-9.677076416E0,1.861229553E0,1.150103990E1
4.191637458E0,6.443051605E0,-9.780810699E0,2.159708862E0,1.190972352E1
4.201674458E0,6.733298035E0,-9.457782440E0,1.317260742E0,1.168426835E1
4.211711458E0,6.183940430E0,-8.922345886E0,1.119072876E0,1.091337251E1
4.221748458E0,5.058281250E0,-7.926616516E0,1.372196503E0,9.502651306E0
4.231785458E0,5.174888763E0,-7.444469147E0,6.364764404E-1,9.088712607E0
4.241822458E0,4.949607239E0,-7.775879974E0,1.701960754E-1,9.219104506E0
4.251859458E0,5.076692963E0,-8.413254547E0,3.806584167E-1,9.833644510E0
4.261896458E0,5.050347748E0,-8.931027832E0,1.149160309E0,1.032423556E1
4.271933458E0,4.300107880E0,-9.060209198E0,1.669328613E0,1.016685677E1
4.281970458E0,3.702550507E0,-8.967252502E0,1.931583252E0,9.891992295E0
4.292007458E0,3.398083649E0,-8.644673309E0,1.690434723E0,9.441129099E0
4.302044458E0,2.778522034E0,-8.438551941E0,1.033301239E0,8.944107278E0
4.312081458E0,2.111808472E0,-8.300389252E0,1.018781433E0,8.625202163E0
4.322118458E0,2.405198364E0,-8.120762787E0,1.346599731E0,8.575843880E0
4.332155458E0,3.568130035E0,-7.793543243E0,1.560654602E0,8.712434277E0
4.342192458E0,4.811743927E0,-7.730823669E0,1.587448883E0,9.243295310E0
4.352229458E0,5.575306091E0,-8.255482635E0,1.760638733E0,1.011616925E1
4.362266458E0,5.674549713E0,-9.105265503E0,1.890418854E0,1.089403772E1
4.372303458E0,5.906267853E0,-9.589658203E0,1.821861420E0,1.140897556E1
4.382340458E0,5.993536377E0,-9.530381470E0,1.746867371E0,1.139307662E1
4.392377458E0,5.432053986E0,-9.341324615E0,1.589544525E0,1.092218879E1
4.402413458E0,4.731211395E0,-9.058862000E0,1.582359467E0,1.034172149E1
4.412450458E0,4.141737213E0,-8.696764984E0,1.174607391E0,9.703989430E0
4.422487458E0,3.889661407E0,-8.325087891E0,6.677613831E-1,9.213167724E0
4.432524458E0,3.833378448E0,-8.331374817E0,5.839356995E-1,9.189536309E0
4.442561458E0,3.937711487E0,-8.534801788E0,7.159611511E-1,9.426611994E0
4.452598458E0,4.292324066E0,-8.653504944E0,5.737568665E-1,9.676589825E0
4.462635458E0,4.993016968E0,-8.674311676E0,1.603166199E-1,1.000997517E1
4.472672458E0,5.583538971E0,-8.821156311E0,1.788780212E-1,1.044129798E1
4.482709458E0,5.533842316E0,-9.076674957E0,8.439450073E-1,1.066403686E1
4.492746458E0,5.094505920E0,-9.050329742E0,1.470242615E0,1.048923602E1
4.502783458E0,5.122198334E0,-8.546178131E0,1.572929077E0,1.008703040E1
4.512820458E0,4.898114319E0,-8.490942993E0,1.686093750E0,9.946383711E0
4.522857458E0,4.305047607E0,-8.500672760E0,1.848206635E0,9.706221718E0
4.532894458E0,4.092040558E0,-8.466094666E0,1.691332855E0,9.554065189E0
4.542931458E0,4.276157684E0,-8.193212128E0,1.533860321E0,9.368403119E0
4.552968458E0,4.968168640E0,-8.197553101E0,1.617536316E0,9.721059624E0
4.563005458E0,5.633984070E0,-8.280630341E0,1.538051605E0,1.013292742E1
4.573042458E0,6.125561829E0,-8.667276306E0,1.250798950E0,1.068684632E1
4.583079458E0,5.674998779E0,-8.419541473E0,1.251098328E0,1.023032437E1
4.593116458E0,5.614524536E0,-8.626411285E0,1.201251984E0,1.036247382E1
4.603153458E0,5.311404877E0,-8.968450012E0,5.319937134E-1,1.043681631E1
4.613190458E0,4.844525757E0,-9.150321808E0,3.814068604E-1,1.036066070E1
4.623227458E0,4.422403564E0,-9.272168427E0,3.676354980E-1,1.027939281E1
4.633264458E0,4.193828888E0,-8.390352173E0,4.047583008E-1,9.388825252E0
4.643301458E0,3.824397125E0,-7.719447327E0,9.544152832E-1,8.667571109E0
4.653338458E0,3.846850433E0,-7.918233948E0,1.620979156E0,8.951215590E0
4.663375458E0,4.074377289E0,-8.244555359E0,1.840273132E0,9.378691196E0
4.673412458E0,4.496649170E0,-8.486302643E0,2.151176605E0,9.841988980E0
4.683449458E0,4.913232880E0,-8.693771210E0,2.135010223E0,1.021174734E1
4.693486458E0,4.565805359E0,-8.149353333E0,2.257455597E0,9.610132366E0
4.703523625E0,4.334685974E0,-7.163653107E0,2.580633545E0,8.761683504E0
4.713560625E0,4.403542786E0,-7.014563141E0,3.201392670E0,8.879425665E0
4.723597625E0,4.393962708E0,-6.921456757E0,3.539988556E0,8.930005089E0
4.733634625E0,4.688999176E0,-6.380481720E0,3.545527039E0,8.675714508E0
4.743671625E0,4.997807007E0,-6.414161682E0,2.754721527E0,8.585338412E0
4.753708625E0,4.929099884E0,-7.516020355E0,1.313518524E0,9.083607134E0
4.763745625E0,4.700225830E0,-9.054521027E0,1.431024170E-1,1.020279139E1
4.773782625E0,4.528832245E0,-9.361682281E0,1.317260742E-2,1.039959567E1
4.783819625E0,4.313130798E0,-8.806037750E0,5.140310669E-1,9.819044051E0
4.793856625E0,4.177363129E0,-8.196505280E0,1.265917511E0,9.286312974E0
4.803893625E0,4.362079010E0,-7.759713593E0,1.566043396E0,9.038439038E0
4.813930625E0,4.525988159E0,-7.829767914E0,1.335223389E0,9.141808131E0
4.823967625E0,4.599635010E0,-8.252339172E0,1.466650085E0,9.560795287E0
4.834004625E0,5.106930084E0,-9.041049042E0,1.144370270E0,1.044657293E1
4.844041625E0,5.885461121E0,-9.991273041E0,1.482816467E0,1.169029231E1
4.854078625E0,6.602919159E0,-1.054392380E1,1.762434998E0,1.256499294E1
4.864115625E0,6.360124054E0,-1.024768982E1,1.144370270E0,1.211511073E1
4.874152625E0,5.492677917E0,-9.330846405E0,9.852511597E-1,1.087220885E1
4.884189625E0,4.862338715E0,-8.463849335E0,6.803352356E-1,9.784781008E0
4.894226625E0,4.411775665E0,-7.831115112E0,1.013242950E0,9.045263385E0
4.904263625E0,4.260590057E0,-7.690707092E0,8.668473816E-1,8.834649263E0
4.914299625E0,4.347858582E0,-7.830366669E0,1.017583923E0,9.014099703E0
4.924336625E0,4.714296570E0,-7.866741028E0,1.347048798E0,9.269560238E0
4.934373625E0,4.758604431E0,-7.936046906E0,1.025667114E0,9.310056372E0
4.944410625E0,4.425547028E0,-8.052055664E0,6.689588928E-1,9.212414065E0
4.954447625E0,4.370611267E0,-8.259524231E0,6.777905273E-1,9.369171968E0
4.964484625E0,4.704267426E0,-8.530311127E0,1.012494507E0,9.793951453E0
4.974521625E0,4.672832794E0,-8.764723663E0,1.208736420E0,1.000583784E1
4.984558625E0,4.348457336E0,-8.793314209E0,1.416504364E0,9.911505466E0
4.994595625E0,4.094435577E0,-8.694819031E0,1.792223053E0,9.776315469E0
5.004632625E0,3.971541138E0,-8.545279999E0,1.989363098E0,9.630810703E0
5.014669625E0,3.810476074E0,-8.331674194E0,1.668580170E0,9.312394030E0
5.024706625E0,3.685635681E0,-7.826325073E0,1.571731567E0,8.792361153E0
5.034743625E0,4.035009155E0,-7.441175995E0,1.164727936E0,8.544529843E0
5.044780625E0,4.515809326E0,-7.409591675E0,3.073109436E-1,8.682685223E0
5.054817625E0,4.730912018E0,-7.426356812E0,-1.496887207E-1,8.806515243E0
5.064854625E0,4.946763153E0,-7.500153351E0,2.010319519E-1,8.986833693E0
5.074891625E0,5.199437714E0,-7.971523132E0,7.887098694E-1,9.549942243E0
5.084928625E0,5.550308075E0,-8.636889496E0,1.816472626E0,1.042599409E1
5.094965625E0,5.565576324E0,-9.194479980E0,2.510728912E0,1.103711292E1
5.105002625E0,5.437891846E0,-9.594448242E0,2.541714478E0,1.131743864E1
5.115039625E0,5.094356232E0,-9.838440857E0,2.609074402E0,1.138220774E1
5.125076625E0,4.146527252E0,-9.674980774E0,1.948348389E0,1.070490554E1
5.135113625E0,3.677402802E0,-9.232800293E0,1.485211487E0,1.004856934E1
5.145150625E0,4.061204681E0,-9.011410675E0,1.229543152E0,9.960455922E0
5.155187625E0,4.943320312E0,-8.998537445E0,1.102756805E0,1.032599460E1
5.165224625E0,5.845793610E0,-9.028026123E0,7.794291687E-1,1.078360183E1
5.175261625E0,6.087540894E0,-9.008267212E0,1.568737793E-1,1.087343744E1
5.185298625E0,6.088738403E0,-8.783285065E0,-1.630110168E-1,1.068856419E1
5.195335625E0,5.859265594E0,-8.504564667E0,-2.522254944E-1,1.033064524E1
5.205372625E0,5.195845184E0,-8.030799866E0,-1.077758789E-1,9.565676625E0
5.215409625E0,4.402045898E0,-7.749684448E0,5.354365540E-1,8.928735042E0
5.225446625E0,3.606150970E0,-7.706574097E0,1.274000702E0,8.603411354E0
5.235483625E0,3.473227386E0,-8.051456909E0,1.738634491E0,8.939357736E0
5.245520625E0,3.823648682E0,-8.453221436E0,2.277364197E0,9.553199965E0
5.255557625E0,4.118535461E0,-8.615783386E0,2.363285522E0,9.837640783E0
5.265594625E0,4.230802002E0,-8.522976379E0,1.931882629E0,9.709427503E0
5.275631625E0,4.416865082E0,-8.517587585E0,8.184979248E-1,9.629534479E0
5.285668625E0,4.215982819E0,-8.532257080E0,2.168989563E-1,9.519504565E0
5.295705625E0,4.197720795E0,-8.762927399E0,-4.969665527E-2,9.716595403E0
5.305742625E0,4.373455353E0,-8.799002380E0,5.855822754E-1,9.843396833E0
5.315779625E0,4.773872681E0,-8.730894012E0,6.554869080E-1,9.972363497E0
5.325816625E0,5.414390717E0,-9.255103912E0,3.155438232E-1,1.072716846E1
5.335853625E0,5.850433960E0,-9.630523224E0,1.422042847E-1,1.126919594E1
5.345890625E0,5.773643646E0,-9.184750214E0,2.469863892E-2,1.084874221E1
5.355927625E0,5.213059387E0,-8.551417236E0,-7.544311523E-2,1.001540896E1
5.365964625E0,4.533322906E0,-7.980803833E0,1.327738953E-1,9.179426742E0
5.376001625E0,3.860023041E0,-7.491321716E0,7.288343811E-1,8.458775236E0
5.386038625E0,3.437152405E0,-6.976242828E0,1.584006042E0,7.936690481E0
5.396075625E0,4.322710876E0,-7.031028900E0,2.205064545E0,8.543038474E0
5.406112625E0,5.226681061E0,-7.568411407E0,2.232906647E0,9.464930968E0
5.416149625E0,5.554499359E0,-8.025111694E0,1.874102783E0,9.938165931E0
5.426186625E0,6.152505798E0,-8.708291016E0,1.172511749E0,1.072671636E1
5.436223625E0,6.181844788E0,-9.202563171E0,3.487747192E-2,1.108618917E1
5.446260625E0,5.662275238E0,-9.241033173E0,-4.734654236E-1,1.084814383E1
5.456297625E0,5.214256897E0,-8.695118408E0,-1.571731567E-1,1.013993405E1
5.466334625E0,4.925207977E0,-7.727680206E0,5.113366699E-1,9.178027031E0
5.476370625E0,4.858746185E0,-7.102131042E0,1.314117279E0,8.704859796E0
5.486407625E0,5.042563934E0,-7.008126526E0,1.905836792E0,8.841578044E0
5.496444625E0,5.737119598E0,-7.521708527E0,2.204316101E0,9.713374796E0
5.506481625E0,5.257666626E0,-7.888146515E0,1.904190216E0,9.669118583E0
5.516518625E0,4.686454468E0,-8.002658386E0,1.172960815E0,9.347792991E0
5.526555625E0,4.843627625E0,-8.401279449E0,8.762777710E-1,9.737047175E0
5.536592625E0,5.450316010E0,-9.276509399E0,-2.424957275E-2,1.075918953E1
5.546629625E0,6.084846497E0,-9.764494629E0,2.468367004E-1,1.150789471E1
5.556666625E0,5.973478088E0,-9.683363342E0,-6.227050781E-2,1.137777850E1
5.566703625E0,5.160818024E0,-8.596323853E0,-9.072633362E-1,1.006747005E1
5.576740625E0,4.118834839E0,-7.331005096E0,-1.164129181E0,8.489030151E0
5.586777625E0,3.693868561E0,-7.149133301E0,-5.583389282E-1,8.066381733E0
5.596814625E0,3.451971588E0,-7.630083160E0,2.318678284E-1,8.377830242E0
5.606851625E0,3.743714905E0,-8.151149597E0,7.518864441E-1,9.001220710E0
5.616888625E0,4.057462463E0,-8.547076263E0,1.055155792E0,9.519919540E0
5.626925625E0,4.339326324E0,-8.788673859E0,7.623646545E-1,9.831161732E0
5.636962625E0,4.182602234E0,-8.669222260E0,5.481600952E-1,9.641060913E0
5.646999625E0,3.811673584E0,-8.367449799E0,5.691165161E-1,9.212326810E0
5.657036625E0,4.013903046E0,-8.455317078E0,5.641767883E-1,9.376678516E0
5.667073625E0,4.532873840E0,-8.695417786E0,7.792794800E-1,9.836895457E0
5.677110625E0,4.962630157E0,-8.792715454E0,1.081051941E0,1.015422161E1
5.687147625E0,5.244494019E0,-8.801996155E0,1.562450867E0,1.036441540E1
5.697184625E0,5.530399475E0,-8.529412994E0,1.704505463E0,1.030735384E1
5.707222125E0,5.507197723E0,-8.046068115E0,1.188229065E0,9.822439982E0
5.717259125E0,5.314248962E0,-7.972570953E0,4.920268250E-1,9.594020014E0
5.727296125E0,5.266647949E0,-8.325836334E0,2.543211365E-1,9.855039854E0
5.737333125E0,5.101690979E0,-8.378077698E0,7.780819702E-1,9.839961804E0
5.747370125E0,4.703069916E0,-8.716673584E0,4.782554626E-1,9.916047261E0
5.757407125E0,5.082530823E0,-9.295519867E0,7.909552002E-1,1.062376672E1
5.767444125E0,6.003266144E0,-9.469308472E0,3.360511780E-1,1.121694868E1
5.777481125E0,6.489305420E0,-8.964258728E0,1.347198486E-2,1.106658036E1
5.787518125E0,6.615642700E0,-8.123157806E0,2.362088013E-1,1.047894153E1
5.797555125E0,6.327491913E0,-7.686665497E0,1.353186035E-1,9.956921788E0
5.807592125E0,5.770051117E0,-7.225624237E0,-7.050338745E-2,9.247059329E0
5.817629125E0,5.918242950E0,-7.213349762E0,-3.772155762E-2,9.330564684E0
5.827666125E0,6.166875916E0,-7.721992035E0,8.761280823E-1,9.921044298E0
5.837703125E0,6.059998169E0,-7.569608917E0,5.798941040E-1,9.713847546E0
5.847740125E0,6.928492126E0,-7.991581421E0,-3.306623840E-1,1.058199954E1
5.857777125E0,6.629863129E0,-8.809480591E0,1.008003845E0,1.107149968E1
5.867814125E0,6.414910126E0,-8.956175537E0,1.219813385E0,1.108386651E1
5.877851125E0,6.117029572E0,-8.445886688E0,5.692662048E-1,1.044390333E1
5.887888125E0,5.927523651E0,-8.164022827E0,-5.757028198E-1,1.010535695E1
5.897925125E0,4.687202911E0,-7.501949615E0,-2.206411743E-1,8.848604505E0
5.907962125E0,3.081641693E0,-6.930887146E0,8.532257080E-2,7.585577901E0
5.917999125E0,1.993704071E0,-6.877298584E0,-6.959028625E-1,7.194190193E0
5.928036125E0,1.146166534E0,-7.407046967E0,-1.893712006E0,7.730730085E0
5.938073125E0,9.325607300E-2,-8.514743500E0,-2.696642303E0,8.932045302E0
5.948110125E0,-4.174818420E-1,-9.533524933E0,-2.101180573E0,9.771251124E0
5.958147125E0,-5.989045715E-1,-9.446256409E0,-7.423063660E-1,9.494285943E0
5.968184125E0,-4.659809875E-1,-8.778944092E0,5.189707947E-1,8.806607084E0
5.978221125E0,6.975494385E-2,-8.536897430E0,2.001188507E0,8.768593897E0
5.988258125E0,7.975415039E-1,-8.424481201E0,3.277733917E0,9.074772482E0
5.998295125E0,1.823358307E0,-7.776927795E0,3.917653198E0,8.896811116E0
6.008332125E0,2.580783234E0,-6.791826324E0,4.093537445E0,8.339448167E0
6.018369125E0,3.010689240E0,-5.942941589E0,4.099075928E0,7.822098689E0
6.028406125E0,4.267176361E0,-5.471122742E0,4.065545654E0,8.041805744E0
6.038443125E0,6.477030945E0,-5.163512421E0,4.165687408E0,9.271825169E0
6.048480125E0,9.784702606E0,-4.981640625E0,4.122127991E0,1.172813231E1
6.058517125E0,1.247670456E1,-5.052892456E0,3.442391510E0,1.389424119E1
6.068554125E0,1.383677628E1,-5.259762268E0,2.894381104E0,1.508306729E1
6.078591125E0,1.489178238E1,-6.708150330E0,2.893932037E0,1.658732365E1
6.088628125E0,1.136751114E1,-9.016949158E0,2.038311310E0,1.465197579E1
6.098665125E0,6.593339081E0,-1.040710831E1,3.362008667E-1,1.232449003E1
6.108702125E0,4.867128754E0,-1.013272888E1,-2.184407501E0,1.145132189E1
6.118739125E0,2.663112030E0,-9.561067657E0,-4.739893341E0,1.099876217E1
6.128776125E0,1.921703796E0,-9.328002319E0,-4.846471710E0,1.068610597E1
6.138813125E0,4.005221100E0,-9.452243958E0,-2.946023712E0,1.068015766E1
6.148850125E0,5.722001038E0,-1.011820908E1,-4.448748779E-1,1.163259921E1
6.158887125E0,6.069428558E0,-1.074645264E1,1.467548218E0,1.242891407E1
6.168923125E0,6.240822144E0,-1.019634659E1,3.079995117E0,1.234502793E1
6.178960125E0,6.346203003E0,-9.986632690E0,4.014801178E0,1.249502915E1
6.188997125E0,5.969586182E0,-9.436676331E0,4.089196472E0,1.189152417E1
6.199034125E0,4.553680573E0,-7.812104645E0,4.055815887E0,9.910329371E0
6.209071125E0,2.923720093E0,-8.585995331E0,4.188889160E0,9.990708053E0
6.219108125E0,2.131118317E0,-9.169481964E0,3.025059357E0,9.887974964E0
6.229145125E0,8.693920898E-1,-1.070903046E1,2.486329651E0,1.102819165E1
6.239182125E0,4.140390015E-1,-1.167512146E1,2.220632172E0,1.189163978E1
6.249219125E0,1.604214020E0,-1.157857224E1,2.864443359E0,1.203502694E1
6.259256125E0,2.080224152E0,-1.142678787E1,2.990032196E0,1.199329422E1
6.269293125E0,2.125130768E0,-1.190923462E1,2.659369812E0,1.238621402E1
6.279330125E0,2.923869781E0,-1.287427780E1,1.986369324E0,1.335071933E1
6.289367125E0,3.838168488E0,-1.200488571E1,1.236877899E0,1.266407064E1
6.299404125E0,3.387605438E0,-1.019799316E1,1.307381287E0,1.082516425E1
6.309441125E0,2.910547485E0,-8.594527588E0,2.122286682E0,9.318867522E0
6.319478125E0,3.119213562E0,-7.752079468E0,2.468067627E0,8.712955132E0
6.329515125E0,3.496129761E0,-6.951394501E0,2.505489807E0,8.174490075E0
6.339552125E0,3.748055878E0,-6.874454498E0,2.633024597E0,8.260681936E0
6.349589125E0,4.729415131E0,-6.556964722E0,2.594105530E0,8.490614662E0
6.359626125E0,5.504353638E0,-6.719376984E0,3.081941071E0,9.216631531E0
6.369663125E0,5.689069519E0,-7.802973633E0,3.667074280E0,1.032953742E1
6.379700125E0,5.210065613E0,-8.850944366E0,4.117936707E0,1.106532433E1
6.389737125E0,4.721182251E0,-9.650581512E0,3.624412994E0,1.133841501E1
6.399774125E0,3.948339386E0,-1.011761032E1,3.259621582E0,1.133933664E1
6.409811125E0,3.238515472E0,-9.645492096E0,2.723137207E0,1.053275731E1
6.419848125E0,2.753224640E0,-9.833201752E0,2.504741364E0,1.051407780E1
6.429885125E0,2.922522583E0,-1.026220963E1,2.523302765E0,1.096454019E1
6.439922125E0,3.803440704E0,-9.824370117E0,2.016606445E0,1.072618809E1
6.449959125E0,4.428540802E0,-8.824299774E0,1.251846771E0,9.952254040E0
6.459996125E0,4.870870972E0,-8.858129425E0,8.286767578E-1,1.014290620E1
6.470033125E0,5.035827942E0,-9.371262360E0,8.056246948E-1,1.066907458E1
6.480070125E0,5.499413910E0,-1.015278717E1,5.899232483E-1,1.156160240E1
6.490107125E0,5.713468781E0,-1.110016708E1,5.002597046E-1,1.249430649E1
6.500144125E0,6.028563538E0,-1.223001755E1,8.402027893E-1,1.366099734E1
6.510181125E0,6.574478302E0,-1.339070389E1,1.169068909E0,1.496333645E1
6.520218125E0,6.814878387E0,-1.248523682E1,1.915865936E0,1.435249972E1
6.530255125E0,7.729925537E0,-9.974208527E0,1.679657135E0,1.273019374E1
6.540292125E0,7.500003662E0,-7.759863281E0,1.368154907E0,1.087829862E1
6.550329125E0,6.800208893E0,-7.214247894E0,1.694326630E0,1.005778089E1
6.560366125E0,5.407954102E0,-9.301058350E0,1.055305481E0,1.081061162E1
6.570403125E0,3.981719971E0,-1.053793625E1,4.968168640E-1,1.127603748E1
6.580440125E0,3.288511505E0,-1.107247467E1,1.136137390E-1,1.155105672E1
6.590477125E0,3.030897217E0,-1.125150238E1,-2.077679443E-1,1.165443312E1
6.600514125E0,2.672542419E0,-1.209784241E1,1.371148682E-1,1.239028145E1
6.610551125E0,2.723137207E0,-1.340567276E1,8.608598328E-1,1.370651736E1
6.620588125E0,3.183879089E0,-1.221459961E1,1.729653168E0,1.274069189E1
6.630625125E0,2.344424744E0,-8.527766418E0,2.629731445E0,9.226842089E0
6.640662125E0,2.608475647E0,-6.731801147E0,3.866160278E0,8.189535224E0
6.650699125E0,3.050805817E0,-5.587730255E0,3.912414093E0,7.472424611E0
6.660736125E0,2.866389313E0,-6.040838013E0,3.998784485E0,7.790904244E0
6.670773125E0,5.936654663E-1,-8.011490021E0,3.630849609E0,8.815865240E0
6.680810125E0,-6.777905273E-1,-9.698332214E0,1.444795532E0,9.828757901E0
6.690847125E0,3.076103210E-1,-9.828860779E0,-6.018983459E-1,9.852076428E0
6.700884125E0,1.479822693E0,-9.157656555E0,-1.323996735E0,9.370459761E0
6.710920708E0,2.603386230E0,-8.934919739E0,-8.524772644E-1,9.345433542E0
6.720957708E0,3.011886749E0,-7.920329590E0,2.356100464E-1,8.476944892E0
6.730994708E0,3.465892639E0,-6.775210876E0,1.283730469E0,7.717762508E0
6.741031708E0,3.784729614E0,-7.584128723E0,1.079704742E0,8.544527434E0
6.751068708E0,3.909869385E0,-9.354347534E0,2.061213684E-1,1.014067958E1
6.761105708E0,3.434008942E0,-1.063164139E1,-5.707630920E-1,1.118704548E1
6.771142708E0,2.539768524E0,-1.168994064E1,-8.652008057E-1,1.199390299E1
6.781179708E0,1.571581879E0,-1.153576126E1,-5.155279541E-1,1.165373016E1
6.791216708E0,9.223818970E-1,-1.054542068E1,7.767347717E-1,1.061414164E1
6.801253708E0,-3.541635132E-1,-1.028675858E1,2.332599335E0,1.055385491E1
6.811290708E0,-7.622149658E-1,-1.093715607E1,2.092348938E0,1.116155359E1
6.821327708E0,2.806663513E-1,-1.035890854E1,7.291337585E-1,1.038832979E1
6.831364708E0,1.127156067E-1,-9.398805084E0,1.533710632E0,9.523786543E0
6.841401708E0,-1.121018829E0,-9.566007385E0,1.645378418E0,9.771000494E0
6.851438708E0,-8.490344238E-1,-1.094074860E1,-5.137316895E-1,1.098566154E1
6.861475708E0,-6.935078430E-1,-1.128263763E1,-5.655239868E-1,1.131806885E1
6.871512708E0,-1.419049072E-1,-1.055185730E1,-3.125500488E-1,1.055743894E1
6.881549708E0,1.140628052E0,-8.824449463E0,-8.292755127E-1,8.936422022E0
6.891586708E0,2.387235718E0,-6.879693604E0,-8.414002991E-1,7.330554748E0
6.901623708E0,2.490371246E0,-5.801635437E0,-4.894821167E-2,6.313740462E0
6.911660708E0,2.203867035E0,-5.896388397E0,6.245013428E-1,6.325695848E0
6.921697708E0,1.647923126E0,-6.841073914E0,1.670526123E0,7.232330223E0
6.931734708E0,1.648821259E0,-7.419321442E0,3.195405121E0,8.244728988E0
6.941771708E0,1.617985382E0,-8.505462799E0,3.520529022E0,9.346384259E0
6.951808708E0,1.432820435E0,-9.251661072E0,2.430645447E0,9.672344301E0
6.961845708E0,1.321751404E0,-8.768765259E0,2.544708252E-1,8.871472614E0
6.971882708E0,1.201401672E0,-8.069419556E0,-2.323468323E0,8.482770950E0
6.981919708E0,1.124611359E0,-7.663763123E0,-4.156406708E0,8.790547914E0
6.991956708E0,8.783734131E-1,-8.007747803E0,-5.277724915E0,9.630677287E0
7.001993708E0,8.469387817E-1,-8.596174164E0,-5.214556274E0,1.008975286E1
7.012030708E0,1.014440460E0,-1.016506165E1,-4.442461853E0,1.113970534E1
7.022067708E0,1.344653778E0,-1.166763702E1,-2.761906586E0,1.206523831E1
7.032104708E0,1.914369049E0,-1.190085205E1,-1.310524750E0,1.212487375E1
7.042141708E0,2.523901520E0,-1.129581024E1,-5.358856201E-1,1.158674162E1
7.052178708E0,3.315305786E0,-1.025382706E1,-5.644761658E-1,1.079123974E1
7.062215708E0,2.661016388E0,-9.846224670E0,-1.082249451E0,1.025672523E1
7.072252708E0,6.155200195E-1,-9.842781830E0,-2.355501709E0,1.013940863E1
7.082289708E0,-1.065184937E0,-9.699080658E0,-3.553460541E0,1.038430866E1
7.092326708E0,-2.004781036E0,-9.661059723E0,-4.086053009E0,1.067946867E1
7.102363708E0,-2.167642365E0,-9.966424713E0,-3.604654083E0,1.081766269E1
7.112400708E0,-1.592388611E0,-1.010264145E1,-2.516267395E0,1.053236286E1
7.122437708E0,-8.635542297E-1,-9.619895325E0,-9.978250122E-1,9.709982838E0
7.132474708E0,-7.620652771E-1,-9.131610718E0,-5.108876038E-1,9.177584864E0
7.142511708E0,-1.191372528E0,-8.597820740E0,1.020877075E-1,8.680570942E0
7.152548708E0,-2.041005707E0,-8.480764160E0,1.824705505E-1,8.724812923E0
7.162585708E0,-2.668500824E0,-8.218958588E0,3.835773468E0,9.454381789E0
7.172622708E0,-1.040935364E0,-7.311695251E0,5.622607727E0,9.282141538E0
7.182659708E0,1.716181183E0,-5.555696869E0,-3.279679871E-1,5.823968454E0
7.192696708E0,3.659140778E0,-6.196514282E0,-4.323010254E-1,7.209229131E0
7.202733708E0,4.755311279E0,-7.954757996E0,-1.690734100E0,9.420708144E0
7.212769708E0,5.061424713E0,-8.284222870E0,-8.382568359E-1,9.744179966E0
7.222806708E0,4.027375031E0,-6.845714264E0,7.337741089E-1,7.976338625E0
7.232843708E0,2.446213074E0,-6.635401611E0,1.146765289E0,7.164327154E0
7.242880708E0,1.466500397E0,-7.686216431E0,-1.628613281E-1,7.826561841E0
7.252917708E0,2.330354004E0,-8.002209320E0,-2.089953918E0,8.592660308E0
7.262954708E0,2.828967133E0,-9.651329956E0,-1.316362610E0,1.014317679E1
7.272991708E0,5.948779449E0,-8.208929443E0,3.893403625E-1,1.014524940E1
7.283028708E0,6.653364258E0,-5.913752289E0,3.613635406E0,9.607189128E0
7.293065708E0,4.881798248E0,-6.884783020E0,1.086590424E0,8.509575202E0
7.303102708E0,2.881657562E0,-7.732919312E0,-2.073937225E0,8.509007404E0
7.313139708E0,3.604504395E-1,-7.717800751E0,-1.325044556E0,7.839012439E0
7.323176708E0,-1.934876404E0,-9.356892242E0,-1.003962250E0,9.607451240E0
7.333213708E0,-4.458927612E0,-1.064047302E1,-2.123933258E0,1.173084797E1
7.343250708E0,-6.600823517E0,-1.099059494E1,-3.068319397E0,1.318251236E1
7.353287708E0,-6.028413849E0,-1.145462997E1,-2.913391571E0,1.326793774E1
7.363324708E0,-2.620600433E0,-9.942474518E0,-1.706900482E0,1.042275661E1
7.373361708E0,2.534379730E0,-7.615263977E0,-7.728428650E-1,8.063039883E0
7.383398708E0,5.025649109E0,-6.628964996E0,6.077362061E-1,8.340843434E0
7.393435708E0,5.497318268E0,-6.855743408E0,1.714684296E0,8.953316037E0
7.403472708E0,3.617677002E0,-8.062683563E0,1.796713715E0,9.017906259E0
7.413509708E0,6.602769470E-1,-1.047581543E1,1.444496155E-1,1.049759688E1
7.423546708E0,-1.123264160E0,-1.394769562E1,-2.665357361E0,1.424443980E1
7.433583708E0,-1.843117218E0,-1.672636734E1,-4.707111511E0,1.747356129E1
7.443620708E0,-9.337582397E-1,-1.634511017E1,-4.611460419E0,1.700882412E1
7.453657708E0,3.010240173E0,-1.285406982E1,-3.173550568E0,1.357792621E1
7.463694708E0,5.773943024E0,-1.062909668E1,-1.826052704E0,1.223317550E1
7.473731708E0,4.798122253E0,-9.514963531E0,5.291496277E-1,1.066941927E1
7.483768708E0,4.382137299E0,-9.737251282E0,1.920206909E0,1.084916515E1
7.493805708E0,3.302282867E0,-9.515562286E0,2.321372681E0,1.033633247E1
7.503842708E0,1.904040527E0,-8.918154602E0,1.725461884E0,9.280952028E0
7.513879708E0,8.153544617E-1,-9.779912567E0,-6.951544189E-1,9.838431399E0
7.523916708E0,1.930984497E-2,-1.028571075E1,-7.388635254E-1,1.031223244E1
7.533953708E0,-2.309696960E-1,-1.001612137E1,6.715036011E-1,1.004126244E1
7.543990708E0,1.276844788E-1,-9.720336456E0,1.219514008E0,9.797369982E0
7.554027708E0,2.598596191E-1,-9.664652252E0,1.299447784E0,9.755080457E0
7.564064708E0,-3.261717224E-1,-9.818083191E0,1.353784790E0,9.916344024E0
7.574101708E0,-7.955955505E-1,-1.021146515E1,9.472302246E-1,1.028611870E1
7.584138708E0,-5.798941040E-1,-1.014245865E1,9.169931030E-1,1.020032455E1
7.594175708E0,3.655398560E-1,-1.016057098E1,1.107846222E0,1.022732347E1
7.604212708E0,1.040186920E0,-1.017404297E1,1.683099976E0,1.036464976E1
7.614249708E0,1.630559235E0,-1.008378067E1,1.545236664E0,1.033097829E1
7.624286708E0,1.436562653E0,-1.043749512E1,1.046024780E0,1.058769023E1
7.634323708E0,7.858657837E-1,-1.109208389E1,8.250842285E-1,1.115045623E1
7.644360708E0,7.520361328E-1,-1.197390015E1,-2.948867798E-2,1.199752944E1
7.654397708E0,1.272952881E0,-1.126826752E1,-1.076261902E-1,1.134045172E1
7.664434708E0,1.026864624E0,-1.057401123E1,6.372248840E-1,1.064284830E1
7.674471708E0,8.882528687E-1,-1.035501663E1,9.235794067E-1,1.043400026E1
7.684508708E0,7.327262878E-1,-1.065244812E1,6.659651184E-1,1.069836662E1
7.694545708E0,6.400689697E-1,-1.049332901E1,-3.318598938E-1,1.051806888E1
7.704582708E0,1.832189941E-1,-1.004575974E1,-9.461824036E-1,1.009188382E1
7.714619500E0,1.330732727E-1,-9.781259766E0,-1.308878174E0,9.869342084E0
7.724656500E0,8.786727905E-1,-9.511520691E0,-1.445993042E0,9.660848182E0
7.734693500E0,1.711241455E0,-9.389075317E0,-1.250649261E0,9.625341875E0
7.744730500E0,2.155966644E0,-9.331744537E0,-1.087488556E0,9.639101599E0
7.754767500E0,2.569107513E0,-9.117539978E0,-3.793112183E-1,9.480175403E0
7.764804500E0,3.090473328E0,-8.858578491E0,8.060737610E-1,9.416750670E0
7.774841500E0,3.511098633E0,-8.749006348E0,1.764830017E0,9.591014058E0
7.784878500E0,3.469036102E0,-8.491841125E0,2.631228333E0,9.543004753E0
7.794915500E0,2.992427216E0,-8.748108215E0,2.602787476E0,9.605129912E0
7.804952500E0,1.803150330E0,-9.511071625E0,2.048490143E0,9.894854543E0
7.814989500E0,-4.215234375E-1,-1.078058167E1,1.393152924E0,1.087839593E1
7.825026500E0,-2.292931824E0,-1.160027710E1,1.153351593E0,1.188083267E1
7.835063500E0,-2.274969177E0,-1.179397430E1,3.781137085E-1,1.201733268E1
7.845100500E0,-1.218915253E0,-1.164503403E1,-2.273771667E-1,1.171086129E1
7.855137500E0,-6.783892822E-1,-1.176598251E1,-4.682263184E-1,1.179482058E1
7.865174500E0,-4.272116089E-1,-1.189187073E1,-1.090931396E0,1.194944478E1
7.875211500E0,-6.559359741E-1,-1.182091827E1,-1.699715424E0,1.196049302E1
7.885248500E0,-1.215771790E0,-1.153456375E1,-2.160606995E0,1.179798646E1
7.895285500E0,-1.242266693E0,-1.075842773E1,-2.210153961E0,1.105313414E1
7.905322500E0,-7.854167175E-1,-1.021565643E1,-1.941013641E0,1.042804151E1
7.915359500E0,-3.528163147E-1,-9.879006500E0,-1.301693115E0,9.970639586E0
7.925396500E0,1.746867371E-1,-9.383387146E0,-8.265811157E-1,9.421343117E0
7.935433500E0,6.750961304E-1,-9.025032349E0,-6.236032104E-1,9.071705719E0
7.945470500E0,7.921527100E-1,-8.559051361E0,-5.903723145E-1,8.615881011E0
7.955507500E0,9.330097961E-1,-8.547375641E0,-1.340911560E0,8.702079145E0
7.965544500E0,1.656156006E0,-8.609496460E0,-2.261347504E0,9.054279350E0
7.975581500E0,2.165995789E0,-8.969048767E0,-2.983894958E0,9.697370915E0
7.985618500E0,2.361788635E0,-9.223519592E0,-2.709515533E0,9.899132975E0
7.995655500E0,1.770518188E0,-1.010488678E1,-2.073787537E0,1.046633012E1
8.005692500E0,1.497935028E0,-1.058209442E1,-5.159770203E-1,1.070003570E1
8.015729500E0,1.355880432E0,-1.045141617E1,9.601034546E-1,1.058264193E1
8.025766500E0,1.619931335E0,-9.987530823E0,7.334747314E-1,1.014460126E1
8.035803500E0,2.353555756E0,-9.431886292E0,2.487826538E-1,9.724278715E0
8.045840500E0,2.193688202E0,-9.430539093E0,-3.308120728E-1,9.687970486E0
8.055877500E0,1.910477142E0,-9.357940063E0,-1.015637970E0,9.604815752E0
8.065914500E0,1.957030334E0,-9.153764648E0,-1.937720490E0,9.559086550E0
8.075951500E0,2.016606445E0,-8.847501526E0,-2.558479614E0,9.428191913E0
8.085988500E0,1.930834808E0,-8.754095764E0,-2.739004211E0,9.373604417E0
8.096025500E0,1.446292419E0,-9.191785583E0,-2.198478241E0,9.561066392E0
8.106062500E0,8.806187439E-1,-9.579928436E0,-1.369651794E0,9.717328041E0
8.116099500E0,8.234376526E-1,-9.576036530E0,-5.050497437E-1,9.624635080E0
8.126136500E0,9.478289795E-1,-9.372609558E0,-1.637594604E-1,9.421836703E0
8.136173500E0,1.426683197E0,-8.674760742E0,-1.127156067E-1,8.792019318E0
8.146210500E0,1.802551575E0,-8.333171082E0,-2.326162720E-1,8.529070453E0
8.156247500E0,2.164798279E0,-8.105644226E0,-8.187973022E-1,8.429605503E0
8.166284500E0,1.422491913E0,-8.447533264E0,-1.403930511E0,8.680744344E0
8.176321500E0,6.336323547E-1,-9.073830872E0,-1.609453125E0,9.237220145E0
8.186358500E0,6.041436768E-1,-9.729317780E0,-1.876647491E0,9.927054943E0
8.196395500E0,1.362466736E0,-9.305698700E0,-1.407972107E0,9.509717627E0
8.206432500E0,1.136885834E0,-9.684860229E0,-1.055455170E0,9.808313447E0
8.216469500E0,1.025218048E0,-1.030591873E1,-1.046174469E0,1.040949153E1
8.226506500E0,8.400531006E-1,-1.040995239E1,-8.759783936E-1,1.048046450E1
8.236543500E0,4.941224670E-1,-1.071232361E1,-1.190773773E0,1.078962355E1
8.246580500E0,4.658312988E-1,-1.046593597E1,-1.267713776E0,1.055272064E1
8.256617500E0,9.285191345E-1,-1.022837997E1,-1.291065216E0,1.035126824E1
8.266654500E0,1.347797241E0,-9.593250732E0,-1.695823517E0,9.834776785E0
8.276691500E0,1.437610474E0,-9.214238892E0,-2.191143494E0,9.579667637E0
8.286728500E0,1.835483093E0,-8.536148987E0,-2.151925049E0,8.992531297E0
8.296765500E0,1.770218811E0,-8.529412994E0,-1.860181732E0,8.907571877E0
8.306802500E0,1.539548492E0,-8.908125458E0,-1.623523865E0,9.184810203E0
8.316839500E0,1.514400787E0,-9.044791260E0,-1.312021637E0,9.264073589E0
8.326876500E0,1.234632568E0,-9.082063751E0,-1.236728210E0,9.248659158E0
8.336913500E0,5.906716919E-1,-9.027127991E0,-1.333576813E0,9.144198156E0
8.346950500E0,3.805087280E-1,-9.462722168E0,-8.110134888E-1,9.505032383E0
8.356987500E0,-3.001258850E-1,-9.941875763E0,-4.564009094E-1,9.956870544E0
8.367024500E0,8.981323242E-4,-9.874366150E0,-3.751199341E-1,9.881488888E0
8.377061500E0,1.184636536E0,-9.953401794E0,-3.974235535E-1,1.003152613E1
8.387098500E0,1.815275116E0,-1.055095917E1,-6.738986206E-1,1.072716656E1
8.397135500E0,1.957629089E0,-1.115944382E1,-1.342857513E0,1.140915265E1
8.407172500E0,1.858684845E0,-1.088910599E1,-1.261726227E0,1.111842127E1
8.417209500E0,2.150577850E0,-1.021760239E1,-7.610174561E-1,1.046917051E1
8.427246500E0,4.292473755E0,-8.112080841E0,-1.151405640E0,9.249698452E0
8.437283500E0,4.166286163E0,-7.525750122E0,-8.975335693E-1,8.648723709E0
8.447320500E0,1.662143555E0,-8.907526703E0,-1.298549652E0,9.153850794E0
8.457357500E0,5.062472534E-1,-9.698481903E0,-1.565294952E0,9.837021185E0
8.467394500E0,2.805166626E-1,-1.056697586E1,-1.593885498E0,1.069018893E1
8.477431500E0,8.659492493E-1,-1.119866226E1,-1.523382111E0,1.133492821E1
8.487468500E0,1.736089783E0,-1.045815216E1,-6.878196716E-1,1.062356109E1
8.497505500E0,2.154320068E0,-9.546098785E0,1.796264648E-2,9.786185142E0
8.507542500E0,2.730172577E0,-8.764573975E0,1.036744080E0,9.238313566E0
8.517579500E0,2.789449310E0,-8.582851868E0,1.306932220E0,9.118905936E0
8.527616500E0,2.335293732E0,-9.157207489E0,3.347039795E-1,9.456218724E0
8.537653500E0,1.962718506E0,-9.271270294E0,-4.935237122E-1,9.489588108E0
8.547690500E0,1.720971222E0,-9.336684265E0,-1.202299805E0,9.569793093E0
8.557727500E0,1.790127411E0,-9.198222198E0,-1.766925659E0,9.535925443E0
8.567764500E0,1.529519348E0,-9.300758972E0,-2.458637238E0,9.741069960E0
8.577801500E0,1.322499847E0,-9.473948822E0,-2.586471405E0,9.909316145E0
8.587838500E0,1.041234741E0,-9.592801666E0,-2.160008240E0,9.887954753E0
8.597875500E0,8.074209595E-1,-9.557325439E0,-1.699266357E0,9.740734280E0
8.607912500E0,9.895921326E-1,-9.615853729E0,-1.445394287E0,9.774103548E0
8.617949500E0,1.711241455E0,-9.713450775E0,-1.295256500E0,9.947721482E0
8.627986500E0,1.998494110E0,-9.505682831E0,-1.100960541E0,9.775689178E0
8.638023500E0,1.769170990E0,-9.407487030E0,-7.048841858E-1,9.598314432E0
8.648060500E0,1.599873047E0,-9.257049866E0,-9.041198730E-2,9.394718746E0
8.658097500E0,1.906285858E0,-8.898545380E0,8.003855896E-1,9.135570740E0
8.668134500E0,1.591789856E0,-9.195378113E0,1.040186920E0,9.389928776E0
8.678171500E0,1.193617859E0,-9.528585205E0,3.498225403E-1,9.609424302E0
8.688208500E0,1.136287079E0,-9.671837311E0,-7.000941467E-1,9.763488982E0
8.698245500E0,1.073717194E0,-9.978699188E0,-1.974244537E0,1.022863371E1
8.708282500E0,1.398092651E0,-9.844428406E0,-2.294428711E0,1.020450081E1
8.718319500E0,1.468745728E0,-9.688303070E0,-2.330054626E0,1.007221847E1
8.728356500E0,9.156459045E-1,-9.610165558E0,-2.276316376E0,9.918432624E0
8.738393500E0,7.951464844E-1,-9.294322357E0,-1.817819824E0,9.503744258E0
8.748430500E0,9.547146606E-1,-8.816965027E0,-1.404678955E0,8.979057597E0
8.758467500E0,7.610174561E-1,-8.979526978E0,-1.199156342E0,9.091151095E0
8.768504500E0,1.082997894E0,-9.358688507E0,-9.270222473E-1,9.466641710E0
8.778541500E0,1.339863739E0,-9.576186218E0,-7.851173401E-1,9.701287882E0
8.788578500E0,6.941065979E-1,-1.004605911E1,-1.222208405E0,1.014390857E1
8.798615500E0,5.598358154E-1,-1.009800110E1,-1.388063507E0,1.020831831E1
8.808652500E0,9.394464111E-1,-9.907597046E0,-8.153544617E-1,9.985381399E0
8.818690500E0,1.108444977E0,-9.701775055E0,7.828720093E-2,9.765204471E0
8.828726500E0,1.229393463E0,-9.610315247E0,2.712359619E-1,9.692426754E0
8.838763500E0,1.232387238E0,-9.382039948E0,-3.159928894E-1,9.467909135E0
8.848801500E0,8.975335693E-1,-9.733059998E0,-1.269360352E0,9.856434402E0
8.858838500E0,5.689668274E-1,-1.009036697E1,-1.217268677E0,1.017943869E1
8.868875500E0,6.831793213E-1,-1.005863297E1,-1.404978333E0,1.017923353E1
8.878912500E0,8.572673035E-1,-1.011551468E1,-1.352437592E0,1.024146630E1
8.888949500E0,1.199455719E0,-1.059391983E1,-1.108145599E0,1.071903998E1
8.898986500E0,2.326911163E0,-1.012165192E1,-9.211843872E-1,1.042645356E1
8.909023500E0,3.311563568E0,-9.035360870E0,-1.410816193E0,9.725975614E0
8.919060500E0,2.805316315E0,-9.023535461E0,-1.470092926E0,9.563219388E0
8.929097500E0,2.322270813E0,-9.127868500E0,-7.631130981E-1,9.449511452E0
8.939134500E0,1.875150604E0,-9.682016144E0,-2.881507874E-1,9.866136897E0
8.949171500E0,1.423689423E0,-1.015009277E1,-7.873626709E-2,1.024975484E1
8.959208500E0,1.206191711E0,-1.033914963E1,-4.845423889E-1,1.042054196E1
8.969245500E0,1.482517090E0,-1.016880386E1,-1.077758789E0,1.033266630E1
8.979282500E0,1.831142120E0,-9.785451050E0,-1.514251099E0,1.006981083E1
8.989319500E0,2.055824890E0,-9.201814728E0,-1.639241180E0,9.570105637E0
8.999356500E0,1.939067688E0,-9.017847290E0,-1.180295563E0,9.299174741E0
9.009393500E0,1.836830292E0,-9.023834839E0,-6.559359741E-1,9.232214941E0
9.019430500E0,1.527723083E0,-9.144483948E0,-3.611988831E-1,9.278253560E0
9.029467500E0,1.518741760E0,-9.308542786E0,-5.498066711E-1,9.447636355E0
9.039504500E0,1.357676697E0,-9.670490112E0,-7.223977661E-1,9.792013254E0
9.049541500E0,1.335223389E0,-9.919422455E0,-8.870553589E-1,1.004811577E1
9.059578500E0,1.567091217E0,-9.892777863E0,-1.299447784E0,1.010006897E1
9.069615500E0,1.891915741E0,-9.531429291E0,-1.673070831E0,9.860357778E0
9.079652500E0,1.941313019E0,-9.220226440E0,-1.656455383E0,9.566875994E0
9.089689500E0,1.735640717E0,-9.139544220E0,-1.412911835E0,9.409571568E0
9.099726500E0,1.508862305E0,-9.376202087E0,-1.047072601E0,9.554380779E0
9.109763500E0,1.220861206E0,-9.858199768E0,-7.071295166E-1,9.958646339E0
9.119800500E0,1.478475494E0,-9.801168365E0,-6.936575317E-1,9.936294676E0
9.129837500E0,1.915416870E0,-9.767937469E0,-9.261241150E-1,9.996956040E0
9.139874500E0,1.929487610E0,-9.917775879E0,-1.520238647E0,1.021745205E1
9.149911500E0,1.784289551E0,-9.932145996E0,-2.077978821E0,1.030287384E1
9.159948500E0,1.418600006E0,-9.868528290E0,-1.931283875E0,1.015530078E1
9.169985500E0,9.771679688E-1,-9.762099609E0,-1.375789032E0,9.906878493E0
9.180022500E0,7.655081177E-1,-9.576635284E0,-8.430468750E-1,9.644100481E0
9.190059500E0,1.199006653E0,-9.258995819E0,-1.254391479E-1,9.337149218E0
9.200096500E0,1.847607880E0,-9.152866516E0,-4.101470947E-2,9.337574768E0
9.210133500E0,1.977388000E0,-9.298962708E0,-4.315525818E-1,9.516670025E0
9.220170500E0,1.377734985E0,-9.614207153E0,-7.217990112E-1,9.739205650E0
9.230207500E0,1.101708984E0,-1.005159760E1,-1.234183502E0,1.018683394E1
9.240244500E0,7.717950439E-1,-1.021909927E1,-1.359173584E0,1.033794034E1
9.250281500E0,7.970924377E-1,-1.009410919E1,-1.489702148E0,1.023453024E1
9.260318500E0,1.032253418E0,-9.559720459E0,-1.623374176E0,9.751366370E0
9.270355500E0,1.434467010E0,-8.894952850E0,-1.607956238E0,9.152234977E0
9.280392500E0,1.578317871E0,-8.918004913E0,-1.511856079E0,9.181917433E0
9.290429500E0,1.764979706E0,-9.220076752E0,-1.347348175E0,9.483686824E0
9.300466500E0,1.794318695E0,-9.530381470E0,-1.066532135E0,9.756292397E0
9.310503500E0,1.248553619E0,-1.006686584E1,-1.007704468E0,1.019392674E1
9.320540500E0,1.240620117E0,-9.948611755E0,-9.855505371E-1,1.007399246E1
9.330577500E0,1.814077606E0,-9.383985901E0,-1.007255402E0,9.610652027E0
9.340614500E0,1.583407288E0,-9.209448853E0,-1.804347839E0,9.517184349E0
9.350651500E0,1.614392853E0,-9.237889709E0,-1.914518738E0,9.571324494E0
9.360688500E0,2.257605286E0,-9.051826630E0,-9.985734558E-1,9.382403525E0
9.370725500E0,1.900148621E0,-9.402996368E0,-4.821473694E-1,9.605174208E0
9.380762500E0,1.489103394E0,-1.008527756E1,-7.418572998E-1,1.022157545E1
9.390799500E0,1.762434998E0,-1.037267990E1,-9.830058289E-1,1.056716452E1
9.400836500E0,2.033670959E0,-1.029394363E1,-1.395697632E0,1.058532309E1
9.410873500E0,1.507664795E0,-1.005668701E1,-2.030078430E0,1.036972638E1
9.420910500E0,6.554869080E-1,-9.772577820E0,-2.911894684E0,1.021822250E1
9.430947500E0,-1.960922241E-2,-9.741741943E0,-2.977458344E0,1.018661763E1
9.440984500E0,5.051994324E-1,-9.285041656E0,-1.771416321E0,9.465999198E0
9.451021500E0,7.126679993E-1,-9.247020721E0,-1.196012878E-1,9.275213872E0
9.461058500E0,6.783892822E-1,-9.593699799E0,2.694396973E-1,9.621428459E0
9.471095500E0,1.202449493E0,-9.542057190E0,2.389031982E-1,9.620489329E0
9.481132500E0,1.706002350E0,-9.288334808E0,-1.085991669E0,9.505944742E0
9.491169500E0,2.345771942E0,-9.350006561E0,-2.102378082E0,9.866370270E0
9.501206500E0,2.851570129E0,-9.102870483E0,-2.627785492E0,9.894390321E0
9.511243500E0,2.307900696E0,-8.971892853E0,-2.777623901E0,9.671424999E0
9.521280500E0,9.858499146E-1,-9.464817810E0,-2.511177979E0,9.841782921E0
9.531317500E0,6.408174133E-1,-9.433532867E0,-1.667083282E0,9.601112227E0
9.541354500E0,7.800279236E-1,-9.297166443E0,-6.092330933E-1,9.349701193E0
9.551391500E0,5.858816528E-1,-9.703721008E0,7.903564453E-2,9.721713087E0
9.561428500E0,8.520281982E-1,-9.996512146E0,3.023712158E-2,1.003280227E1
9.571465500E0,1.909579010E0,-9.821376343E0,-6.487509155E-1,1.002630555E1
9.581502500E0,2.619851990E0,-9.488468628E0,-1.028361511E0,9.897079809E0
9.591539500E0,2.930755463E0,-9.245823212E0,-1.097966766E0,9.761152876E0
9.601576500E0,3.186124420E0,-9.009764099E0,-7.018904114E-1,9.582269465E0
9.611613500E0,2.689906311E0,-9.287137299E0,-5.777984619E-1,9.686091380E0
9.621650500E0,1.312919769E0,-9.853559418E0,-1.453477478E-1,9.941705965E0
9.631687500E0,3.635939026E-1,-1.039483383E1,-1.251397705E-1,1.040194361E1
9.641724500E0,3.559597778E-1,-1.031070877E1,-7.268884277E-1,1.034242667E1
9.651761500E0,8.551716614E-1,-9.913285217E0,-1.452429657E0,1.005555042E1
9.661798500E0,1.380728760E0,-9.628876648E0,-1.725162506E0,9.879163076E0
9.671835500E0,1.771116943E0,-9.413624268E0,-1.720522156E0,9.732079612E0
9.681872500E0,2.094594269E0,-9.351653137E0,-1.440604248E0,9.691031016E0
9.691909500E0,2.082319794E0,-9.455088043E0,-9.418414307E-1,9.727374307E0
9.701946500E0,1.966161346E0,-9.656569061E0,-5.316943359E-1,9.869033151E0
9.711983708E0,1.994302826E0,-9.743388519E0,-5.685177612E-1,9.961630190E0
9.722020708E0,1.406774597E0,-1.006327332E1,-1.285526733E0,1.024212202E1
9.732057708E0,1.135688324E0,-9.939929810E0,-2.094145203E0,1.022142048E1
9.742094708E0,1.460662537E0,-9.306297455E0,-2.555485840E0,9.760697477E0
9.752131708E0,2.239343262E0,-8.797206116E0,-2.306403809E0,9.366162086E0
9.762168708E0,2.177372131E0,-9.161249084E0,-1.913021851E0,9.608802568E0
9.772205708E0,1.912273407E0,-9.395661621E0,-1.558858337E0,9.714179646E0
9.782242708E0,1.645977173E0,-9.415570221E0,-1.242715759E0,9.638804174E0
9.792279708E0,1.573078766E0,-9.244026947E0,-1.158141632E0,9.448169296E0
9.802316708E0,1.005608826E0,-9.462722168E0,-1.162482605E0,9.586747402E0
9.812353708E0,5.069956970E-1,-9.700278168E0,-1.075812836E0,9.772912280E0
9.822390708E0,4.541555786E-1,-1.003468277E1,-8.898994446E-1,1.008429653E1
9.832427708E0,5.069956970E-1,-1.021371048E1,-6.677613831E-1,1.024806478E1
9.842464708E0,1.132245483E0,-9.859397278E0,-4.487667847E-1,9.934338737E0
9.852501708E0,1.927092590E0,-9.435478821E0,-6.556365967E-1,9.652554365E0
9.862538708E0,2.077380066E0,-9.403445435E0,-1.043480072E0,9.686544515E0
9.872575708E0,2.124681702E0,-9.494156799E0,-1.103954315E0,9.791424860E0
9.882612708E0,1.870809631E0,-9.648785248E0,-1.275048523E0,9.910839226E0
9.892649708E0,1.141675873E0,-9.604327698E0,-1.467248840E0,9.782604637E0
9.902686708E0,1.287772064E0,-9.064101105E0,-1.482966156E0,9.274452779E0
9.912723708E0,1.125060425E0,-8.973389740E0,-1.287023621E0,9.134764046E0
9.922760708E0,6.710545349E-1,-9.657167816E0,-1.197659454E0,9.754260228E0
9.932797708E0,1.186133423E0,-9.775870972E0,-1.274449768E0,9.929692239E0
9.942834708E0,1.853296051E0,-9.805209961E0,-1.274150391E0,1.005983637E1
9.952871708E0,2.233206024E0,-9.872270508E0,-1.163680115E0,1.018837993E1
9.962908708E0,2.312840424E0,-9.855205994E0,-1.252744904E0,1.020018067E1
9.972945708E0,2.126627655E0,-1.002046234E1,-1.280287628E0,1.032333992E1
9.982982708E0,1.933229828E0,-1.011895752E1,-1.153501282E0,1.036635153E1
9.993019708E0,2.110311584E0,-9.769134979E0,-1.133742371E0,1.005856774E1
1.000305671E1,1.906734924E0,-9.469607849E0,-1.239422607E0,9.738854105E0
1.001309371E1,1.351240082E0,-9.518406372E0,-1.348096619E0,9.707897513E0
1.002313071E1,1.386566620E0,-9.325457611E0,-1.550625458E0,9.554641069E0
1.003316771E1,1.436562653E0,-9.324559479E0,-1.631457367E0,9.574590063E0
1.004320471E1,1.270108795E0,-9.700128479E0,-1.279539185E0,9.866250016E0
1.005324171E1,1.636995850E0,-9.812395020E0,-9.241781616E-1,9.990843643E0
1.006327871E1,1.753753052E0,-9.581575012E0,-9.460327148E-1,9.786583029E0
1.007331571E1,1.486708374E0,-9.490713959E0,-9.551637268E-1,9.653822610E0
1.008335271E1,1.253044281E0,-9.559271393E0,-9.690847778E-1,9.689629242E0
1.009338971E1,1.399589539E0,-9.217981110E0,-1.305884399E0,9.414635451E0
1.010342671E1,1.457070007E0,-8.992699585E0,-1.619482269E0,9.252806150E0
1.011346371E1,1.114731903E0,-9.303153992E0,-1.563498688E0,9.499254158E0
1.012350071E1,1.899250488E0,-8.904682617E0,-1.210832062E0,9.185131421E0
1.013353771E1,1.840871887E0,-9.160949707E0,-7.122189331E-1,9.371182671E0
1.014357471E1,1.437460785E0,-9.501940613E0,-1.417552185E0,9.714042573E0
1.015361171E1,1.408271484E0,-9.705816650E0,-1.536554718E0,9.927089494E0
1.016364871E1,1.556313629E0,-9.505533142E0,-1.371897125E0,9.729304916E0
1.017368571E1,1.128503265E0,-9.884844360E0,-1.749711456E0,1.010174034E1
1.018372271E1,9.128018188E-1,-1.001582199E1,-1.631457367E0,1.018879534E1
1.019375971E1,8.318202209E-1,-9.958940277E0,-1.596430206E0,1.012032636E1
1.020379671E1,1.110989685E0,-9.674082642E0,-1.428629150E0,9.841908061E0
1.021383371E1,1.526675262E0,-9.562265167E0,-1.074765015E0,9.742831843E0
1.022387171E1,1.638043671E0,-9.748627625E0,-6.095324707E-1,9.904062675E0
1.023390871E1,1.986668701E0,-9.875713348E0,-2.469863892E-1,1.007658518E1
1.024394571E1,2.546803894E0,-9.544452209E0,-3.273692322E-1,9.883822574E0
1.025398271E1,2.421664124E0,-9.294621735E0,-8.538244629E-1,9.642793502E0
1.026401971E1,1.429976349E0,-9.542655945E0,-1.702409821E0,9.798230148E0
1.027405671E1,1.095871124E0,-9.729916534E0,-1.526076508E0,9.909647763E0
1.028409371E1,1.020428009E0,-9.398505707E0,-1.045575714E0,9.511383255E0
1.029413071E1,1.132993927E0,-9.279353485E0,-8.081694031E-1,9.383134558E0
1.030416771E1,1.406774597E0,-9.063652039E0,-9.533674622E-1,9.221589481E0
1.031420471E1,1.474433899E0,-9.257049866E0,-1.000519409E0,9.426980780E0
1.032424171E1,1.928888855E0,-9.397457886E0,-1.033151550E0,9.648845996E0
1.033427871E1,2.163002014E0,-9.211694183E0,-1.574126587E0,9.592276161E0
1.034431571E1,2.164947968E0,-8.931925964E0,-1.934577026E0,9.391958763E0
1.035435271E1,1.874102783E0,-8.727151794E0,-2.027084656E0,9.153388000E0
1.036438971E1,1.247356110E0,-8.679550781E0,-1.760489044E0,8.943702852E0
1.037442671E1,6.010002136E-1,-9.444759521E0,-1.404678955E0,9.567539216E0
1.038446371E1,4.321513367E-1,-1.017449203E1,-1.375789032E0,1.027617820E1
1.039450071E1,7.816744995E-1,-1.019664597E1,-1.267863464E0,1.030485719E1
1.040453771E1,1.117126923E0,-1.009380981E1,-1.324445801E0,1.024144159E1
1.041457471E1,1.492546234E0,-9.623637543E0,-1.533860321E0,9.858743394E0
1.042461171E1,1.347048798E0,-9.233848114E0,-1.303938446E0,9.422247446E0
1.043464871E1,1.621577911E0,-9.343420258E0,-1.071022797E0,9.543380264E0
1.044468571E1,2.157463531E0,-9.717492371E0,-7.470964050E-1,9.982106987E0
1.045472271E1,2.357747040E0,-1.040665924E1,-3.852987671E-1,1.067735842E1
1.046475971E1,2.059417419E0,-1.051593201E1,1.127156067E-1,1.071628345E1
1.047479671E1,1.404828644E0,-1.086635330E1,-1.315763855E-1,1.095757683E1
1.048483371E1,1.254092102E0,-1.000773880E1,-5.700146484E-1,1.010210372E1
1.049487071E1,1.909878387E0,-8.873547363E0,-1.204545135E0,9.156331539E0
1.050490771E1,3.018323364E0,-8.174501038E0,-1.834884338E0,8.905029123E0
1.051494471E1,3.256627808E0,-8.460406494E0,-1.558858337E0,9.198594569E0
1.052498171E1,2.621199188E0,-9.436376953E0,-5.016069031E-1,9.806503183E0
1.053501871E1,1.517993317E0,-1.083851120E1,-1.661544800E-2,1.094430924E1
1.054505571E1,1.670825500E0,-1.037582336E1,3.245251465E-1,1.051449880E1
1.055509271E1,2.606529694E0,-9.779164124E0,-6.286926270E-2,1.012077075E1
1.056512971E1,6.060746613E0,-6.683002625E0,1.651066589E-1,9.023438025E0
1.057516671E1,3.476370850E0,-8.052205353E0,1.430425415E0,8.886466238E0
1.058520371E1,1.424587555E0,-1.017299515E1,8.521778870E-1,1.030754516E1
1.059524071E1,8.427474976E-1,-1.126063339E1,-2.805166626E-1,1.129560876E1
1.060527771E1,3.824546814E-1,-1.108504852E1,-1.758842468E0,1.123023148E1
1.061531471E1,4.888833618E-1,-1.045875092E1,-3.158432007E0,1.093618628E1
1.062535171E1,5.288502502E-1,-8.905580750E0,-2.738255768E0,9.332046706E0
1.063538871E1,4.415817261E-1,-9.232051849E0,-2.749033356E0,9.642767246E0
1.064542571E1,1.019978943E0,-9.611662445E0,-2.613265686E0,1.001267045E1
1.065546271E1,2.273023224E0,-9.154812469E0,-2.307601318E0,9.710934547E0
1.066549971E1,3.208428040E0,-9.049132233E0,-1.390159149E0,9.701203385E0
1.067553671E1,3.096760254E0,-9.439071350E0,-6.768923950E-1,9.957116818E0
1.068557371E1,2.151925049E0,-1.012748978E1,-8.384065247E-1,1.038748074E1
1.069561071E1,1.367556152E0,-1.004052063E1,-9.862989807E-1,1.018111242E1
1.070564771E1,1.132095795E0,-9.807904358E0,-1.162482605E0,9.941227016E0
1.071568521E1,9.030720520E-1,-1.005548950E1,-1.190175018E0,1.016587059E1
1.072572221E1,1.543141022E0,-1.003004242E1,-1.061891785E0,1.020346261E1
1.073575921E1,2.237846375E0,-9.606423340E0,-9.821076965E-1,9.912409460E0
1.074579621E1,2.048939209E0,-9.478289795E0,-1.052760773E0,9.754200867E0
1.075583321E1,1.827100525E0,-9.292077026E0,-1.050964508E0,9.528143481E0
1.076587021E1,1.969753876E0,-8.966054993E0,-9.798623657E-1,9.232020511E0
1.077590721E1,1.880240021E0,-9.027427368E0,-8.925938416E-1,9.264257725E0
1.078594421E1,2.080074463E0,-9.199120331E0,-5.818400574E-1,9.449288994E0
1.079598121E1,2.255809021E0,-9.225914612E0,-1.893562317E-1,9.499580546E0
1.080601821E1,1.754052429E0,-9.510023804E0,5.254074097E-2,9.670574606E0
1.081605521E1,1.989812164E0,-9.339079285E0,9.580078125E-3,9.548709133E0
1.082609221E1,2.227517853E0,-9.487420807E0,-2.498304749E-1,9.748610394E0
1.083612921E1,2.114353180E0,-9.948911133E0,-6.894662476E-1,1.019444387E1
1.084616621E1,2.045496368E0,-9.993817749E0,-1.427880707E0,1.030045105E1
1.085620321E1,1.895208893E0,-9.803862762E0,-1.871707764E0,1.015927319E1
1.086624121E1,1.663191376E0,-9.489366760E0,-1.889221344E0,9.817507033E0
1.087627821E1,1.172661438E0,-9.465266876E0,-1.508413239E0,9.656175350E0
1.088631521E1,1.015937347E0,-9.629625092E0,-1.081051941E0,9.743227463E0
1.089635221E1,1.533261566E0,-9.486971741E0,-9.111552429E-1,9.653171899E0
1.090638921E1,1.691033478E0,-9.470056915E0,-1.327589264E0,9.711028033E0
1.091642621E1,2.429897003E0,-9.592352600E0,-1.140628052E0,9.960856399E0
1.092646321E1,2.632276154E0,-9.698781281E0,-1.027762756E0,1.010205585E1
1.093650021E1,2.024390259E0,-9.852212219E0,-1.332978058E0,1.014598798E1
1.094653721E1,1.469793549E0,-9.826765137E0,-1.257984009E0,1.001539464E1
1.095657421E1,1.456022186E0,-9.779014435E0,-9.436376953E-1,9.931745870E0
1.096661121E1,1.823957062E0,-9.327852631E0,-7.647596741E-1,9.535224770E0
1.097664821E1,2.068548431E0,-8.908275146E0,-9.427395630E-1,9.193748777E0
1.098668521E1,2.180814972E0,-8.987909546E0,-1.162781982E0,9.321509206E0
1.099672221E1,2.342329102E0,-9.001531219E0,-1.154998169E0,9.372731229E0
1.100675921E1,2.369722137E0,-9.180858307E0,-8.803193665E-1,9.522536660E0
1.101679621E1,1.976789246E0,-9.851314087E0,-7.592211914E-1,1.007633375E1
1.102683321E1,2.074386292E0,-9.789941711E0,-8.629554749E-1,1.004443773E1
1.103687021E1,2.038610687E0,-9.669142914E0,-7.698490906E-1,9.911656060E0
1.104690721E1,1.648372192E0,-9.833950195E0,-8.110134888E-1,1.000407168E1
1.105694421E1,1.434167633E0,-9.651479645E0,-9.309141541E-1,9.801759908E0
1.106698121E1,1.974244537E0,-9.313183136E0,-8.491841125E-1,9.557935722E0
1.107701821E1,2.541415100E0,-9.197922821E0,-3.902384949E-1,9.550542446E0
1.108705521E1,2.630030823E0,-9.367520142E0,-2.483335876E-1,9.732890902E0
1.109709221E1,2.418221283E0,-9.488169250E0,-4.918771362E-1,9.803830528E0
1.110712921E1,2.085463257E0,-9.425749054E0,-6.721023560E-1,9.677066901E0
1.111716621E1,1.872306519E0,-9.299262085E0,-9.162446594E-1,9.530021579E0
1.112720321E1,1.713187408E0,-9.320966949E0,-1.151854706E0,9.546842684E0
1.113724021E1,1.427431641E0,-9.516759796E0,-1.211131439E0,9.699129727E0
1.114727721E1,1.218765564E0,-9.737400970E0,-1.546134796E0,9.934430027E0
1.115731421E1,1.514251099E0,-9.591005402E0,-1.904788971E0,9.894875544E0
1.116735121E1,1.695524139E0,-9.541159058E0,-2.009720764E0,9.896842720E0
1.117738821E1,1.826801147E0,-9.716594238E0,-1.972298584E0,1.008163517E1
1.118742521E1,1.655706940E0,-9.568402405E0,-1.650018768E0,9.849784362E0
1.119746221E1,1.150806885E0,-9.624236298E0,-1.829345856E0,9.863913374E0
1.120749921E1,7.231462097E-1,-9.592053223E0,-2.835254059E0,1.002841418E1
1.121753621E1,2.181264038E0,-9.282197571E0,-2.179168396E0,9.780893591E0
1.122757321E1,4.180955658E0,-8.604556732E0,3.784130859E-1,9.574026490E0
1.123761021E1,2.477947083E0,-1.016850449E1,-9.809101868E-1,1.051194035E1
1.124764721E1,2.099084930E0,-1.056742493E1,-1.529519348E0,1.088191420E1
1.125768421E1,1.971250763E0,-9.651779022E0,-1.721270599E0,1.000027201E1
1.126772121E1,1.497485962E0,-9.344468079E0,-1.607956238E0,9.599326598E0
1.127775821E1,8.738827515E-1,-9.810000000E0,-1.260678406E0,9.929203448E0
1.128779521E1,1.093925171E0,-9.901459808E0,-1.388362885E0,1.005798837E1
1.129783221E1,1.685494995E0,-9.676777039E0,-1.409468994E0,9.923079667E0
1.130786921E1,2.243983612E0,-9.311536560E0,-1.360820160E0,9.674296205E0
1.131790621E1,2.669997711E0,-9.211394806E0,-1.199904785E0,9.665322216E0
1.132794321E1,3.092269592E0,-9.447902985E0,-9.071136475E-1,9.982377332E0
1.133798021E1,3.143912201E0,-9.434131622E0,-7.882608032E-1,9.975388638E0
1.134801721E1,2.488874359E0,-9.655670929E0,-7.622149658E-1,1.000037241E1
1.135805521E1,1.628762970E0,-9.975555725E0,-1.022823029E0,1.015926906E1
1.136809221E1,1.214873657E0,-1.018497025E1,-1.472338257E0,1.036230268E1
1.137812921E1,1.550625458E0,-9.659712524E0,-1.654509430E0,9.922292417E0
1.138816621E1,2.394420776E0,-9.007219391E0,-1.578467560E0,9.452767417E0
1.139820321E1,3.135829010E0,-8.505163422E0,-1.127605133E0,9.134698777E0
1.140824021E1,2.903512115E0,-8.086334381E0,-1.100810852E0,8.662041957E0
1.141827721E1,2.555785217E0,-8.424780579E0,-1.568288727E0,8.942510576E0
1.142831421E1,2.318528595E0,-8.791967010E0,-1.338067474E0,9.190466981E0
1.143835121E1,1.643133087E0,-9.076974335E0,-1.092577972E0,9.288976049E0
1.144838821E1,6.215075684E-1,-9.879156189E0,-1.064436493E0,9.955753297E0
1.145842521E1,-1.377136230E-2,-1.040635986E1,-1.456022186E0,1.050773600E1
1.146846221E1,9.894424438E-2,-1.038091278E1,-2.016307068E0,1.057537868E1
1.147849921E1,7.397616577E-1,-9.871821442E0,-2.061962128E0,1.011196290E1
1.148853621E1,1.558409271E0,-9.333840179E0,-1.656754761E0,9.606979145E0
1.149857321E1,2.085912323E0,-9.257349243E0,-1.597777405E0,9.623016048E0
1.150861021E1,2.609074402E0,-8.532855835E0,-1.285826111E0,9.015001205E0
1.151864721E1,2.704875183E0,-8.376880188E0,-1.890568542E-1,8.804783582E0
1.152868421E1,1.903591461E0,-9.766739960E0,2.930905151E-1,9.954836611E0
1.153872121E1,1.589544525E0,-1.072115524E1,-8.385562134E-1,1.087074046E1
1.154875821E1,1.550176392E0,-1.018392242E1,-1.840871887E0,1.046442221E1
1.155879521E1,1.502276001E0,-9.314829712E0,-2.093845825E0,9.664733627E0
1.156883221E1,1.492995300E0,-8.896000671E0,-2.008373566E0,9.241289266E0
1.157886921E1,1.943258972E0,-8.679700470E0,-1.812880096E0,9.077444019E0
1.158890621E1,2.241738281E0,-8.610843658E0,-1.896556091E0,9.097743898E0
1.159894321E1,1.753902740E0,-9.032816162E0,-1.746717682E0,9.365840341E0
1.160898021E1,1.291364594E0,-9.527836761E0,-1.221160583E0,9.692189074E0
1.161901721E1,8.493338013E-1,-1.024948608E1,-1.732197876E0,1.042946990E1
1.162905421E1,1.212778015E0,-1.055574921E1,-1.206042023E0,1.069341897E1
1.163909121E1,1.572180634E0,-1.002615051E1,-1.010099487E0,1.019881106E1
1.164912821E1,1.985620880E0,-1.004605911E1,-3.561094666E-1,1.024659982E1
1.165916521E1,2.512824554E0,-9.946366425E0,-1.796264648E-1,1.026044628E1
1.166920221E1,2.763702850E0,-9.637259216E0,-2.860551453E-1,1.002978794E1
1.167923921E1,1.877695312E0,-9.770332489E0,-8.452922058E-1,9.984971484E0
1.168927621E1,1.764231262E0,-9.454339600E0,-1.337019653E0,9.710029391E0
1.169931321E1,1.513502655E0,-9.290879517E0,-1.420995026E0,9.519997865E0
1.170935021E1,1.632954254E0,-9.241332550E0,-1.742825775E0,9.544957233E0
1.171938696E1,1.902693329E0,-8.918603668E0,-2.180515594E0,9.376373582E0
1.172942396E1,1.635948029E0,-8.895252228E0,-2.337389374E0,9.341585906E0
1.173946096E1,1.644330597E0,-9.089847565E0,-1.813628540E0,9.413734665E0
1.174949796E1,1.949545898E0,-9.465566254E0,-1.162632294E0,9.733929708E0
1.175953496E1,2.210303650E0,-9.785151672E0,-5.548960876E-1,1.004701673E1
1.176957196E1,2.462529144E0,-9.834698639E0,-1.431024170E-1,1.013932076E1
1.177960896E1,2.624791718E0,-9.855505371E0,-1.537303162E-1,1.020020346E1
1.178964596E1,2.424957275E0,-9.873767395E0,-2.478845215E-1,1.017020880E1
1.179968296E1,1.704056396E0,-1.042656784E1,-5.298980713E-1,1.057818118E1
1.180972096E1,1.634151764E0,-1.041339523E1,-7.361691284E-1,1.056651301E1
1.181975796E1,1.845063171E0,-1.015757721E1,-9.997709656E-1,1.037208633E1
1.182979496E1,1.723815308E0,-9.783505096E0,-1.502575378E0,1.004720080E1
1.183983196E1,1.892664185E0,-9.718390503E0,-1.916614380E0,1.008477577E1
1.184986896E1,3.517235870E0,-7.778125305E0,-1.176403656E0,8.617082278E0
1.185990596E1,2.506387939E0,-8.537496185E0,-1.586550751E0,9.038139460E0
1.186994296E1,1.640438690E0,-9.264085236E0,-1.669478302E0,9.555180383E0
1.187997996E1,1.486408997E0,-9.391320648E0,-1.613644409E0,9.644177700E0
1.189001696E1,1.380728760E0,-1.002570145E1,-1.728904724E0,1.026694760E1
1.190005396E1,1.465153198E0,-9.987530823E0,-1.289268951E0,1.017642669E1
1.191009096E1,1.541045380E0,-9.700128479E0,-9.680369568E-1,9.869367200E0
1.192012796E1,1.594484253E0,-9.345665588E0,-1.003662872E0,9.533686825E0
1.193016496E1,1.669029236E0,-9.094637604E0,-1.015787659E0,9.302145790E0
1.194020196E1,1.086291046E0,-9.380842438E0,-7.816744995E-1,9.475824402E0
1.195023896E1,9.015751648E-1,-9.298363953E0,-7.253915405E-1,9.370090867E0
1.196027596E1,1.042731628E0,-9.093290405E0,-6.483018494E-1,9.175811405E0
1.197031296E1,1.268761597E0,-9.451495514E0,-8.984317017E-1,9.578502125E0
1.198034996E1,1.160836029E0,-9.846973114E0,-1.018931122E0,9.967378814E0
1.199038696E1,1.061293030E0,-9.735904083E0,-1.184935913E0,9.865000980E0
1.200042396E1,1.251397705E0,-9.342671814E0,-1.347797241E0,9.521978274E0
1.201046096E1,1.492845612E0,-9.213191071E0,-1.209035797E0,9.411335999E0
1.202049796E1,1.724414063E0,-9.348809052E0,-8.657995605E-1,9.545860015E0
1.203053496E1,2.113754425E0,-9.877060547E0,-4.896318054E-1,1.011256753E1
1.204057196E1,2.470013580E0,-1.014021332E1,-1.076261902E-1,1.043726385E1
1.205060896E1,2.469265137E0,-1.048045578E1,-2.634521484E-2,1.076744713E1
1.206064596E1,2.319726105E0,-1.030906219E1,-5.330415344E-1,1.058026587E1
1.207068296E1,2.229014740E0,-1.007285339E1,-1.493144989E0,1.042402821E1
1.208071996E1,2.155966644E0,-9.641151123E0,-2.126777344E0,1.010560087E1
1.209075696E1,2.030677185E0,-9.027127991E0,-2.268233185E0,9.526676827E0
1.210079396E1,1.664538574E0,-8.408614197E0,-1.689237213E0,8.736647168E0
1.211083096E1,1.403182068E0,-8.461304626E0,-1.347797241E0,8.682116867E0
1.212086796E1,1.128353577E0,-8.620872803E0,-8.819659424E-1,8.739021318E0
1.213090496E1,1.103954315E0,-9.305099945E0,-1.131646729E0,9.438443963E0
1.214094196E1,1.167721710E0,-9.741592255E0,-1.363813934E0,9.905664142E0
1.215097896E1,1.368304596E0,-9.848619690E0,-1.222657471E0,1.001810654E1
1.216101596E1,1.689386902E0,-1.020862106E1,-1.311722260E0,1.043027264E1
1.217105296E1,1.555265808E0,-1.022254211E1,-1.312620392E0,1.042315649E1
1.218108996E1,1.760938110E0,-9.880353699E0,-1.336720276E0,1.012467843E1
1.219112696E1,2.051483917E0,-9.730964355E0,-1.214574280E0,1.001875462E1
1.220116396E1,2.116748199E0,-9.704319763E0,-9.273216248E-1,9.975688969E0
1.221120096E1,1.897005157E0,-9.657167816E0,-9.099577332E-1,9.883700819E0
1.222123796E1,1.653760986E0,-9.645342407E0,-1.096320190E0,9.847307932E0
1.223127496E1,1.357976074E0,-9.917775879E0,-1.147813110E0,1.007590454E1
1.224131296E1,1.331481171E0,-9.923314362E0,-1.071172485E0,1.006938034E1
1.225134996E1,1.535506897E0,-9.707163849E0,-1.282832336E0,9.911229501E0
1.226138696E1,1.632505188E0,-9.497899017E0,-1.353934479E0,9.731818818E0
1.227142396E1,1.898651733E0,-9.102571106E0,-1.549577637E0,9.426710455E0
1.228146096E1,2.037113800E0,-8.981173553E0,-1.891316986E0,9.401510037E0
1.229149796E1,2.011816406E0,-8.876092072E0,-1.923500061E0,9.302272206E0
1.230153496E1,2.101629639E0,-9.003327484E0,-1.582209778E0,9.379772956E0
1.231157196E1,2.122735748E0,-9.346114655E0,-1.215622101E0,9.660931802E0
1.232160896E1,2.127675476E0,-9.637408905E0,-1.118474121E0,9.932655118E0
1.233164596E1,1.868414612E0,-9.590406647E0,-1.064735870E0,9.828557131E0
1.234168296E1,1.452729034E0,-9.971813507E0,-8.910969543E-1,1.011639956E1
1.235171996E1,1.305435333E0,-1.009889923E1,-4.122427368E-1,1.019126445E1
1.236175696E1,1.702409821E0,-9.493258667E0,-1.700463867E-1,9.646194850E0
1.237179396E1,1.924248505E0,-9.184151459E0,-1.173559570E-1,9.384302997E0
1.238183096E1,1.938169556E0,-9.290580139E0,-1.175056458E-1,9.491321727E0
1.239186796E1,1.923649750E0,-9.475595398E0,-3.677851868E-1,9.675877348E0
1.240190496E1,1.628762970E0,-9.565109253E0,-9.901908875E-1,9.753187265E0
1.241194196E1,1.171912994E0,-9.530082092E0,-1.722917175E0,9.755218519E0
1.242197896E1,8.692424011E-1,-9.434580688E0,-1.525477753E0,9.596560712E0
1.243201596E1,9.687854004E-1,-9.589209137E0,-1.585353241E0,9.767539195E0
1.244205296E1,1.202748871E0,-9.877509613E0,-1.775457916E0,1.010762345E1
1.245208996E1,1.318907318E0,-9.892628174E0,-1.750310211E0,1.013248215E1
1.246212696E1,1.154249725E0,-1.003737717E1,-1.576072540E0,1.022571452E1
1.247216396E1,1.053209839E0,-1.033061737E1,-1.401984558E0,1.047838093E1
1.248220096E1,1.399589539E0,-9.943522339E0,-1.443598022E0,1.014477514E1
1.249223796E1,2.030377808E0,-9.411378937E0,-1.395697632E0,9.728538401E0
1.250227496E1,2.501597900E0,-9.216035156E0,-1.316512299E0,9.639839246E0
1.251231196E1,2.584375763E0,-8.882678375E0,-1.186432800E0,9.326767714E0
1.252234896E1,1.953737183E0,-9.350455627E0,-1.357227631E0,9.648325049E0
1.253238596E1,1.230441284E0,-9.979747009E0,-1.426234131E0,1.015595785E1
1.254242296E1,1.475332031E0,-9.964329071E0,-1.510508881E0,1.018558273E1
1.255245996E1,1.674118652E0,-9.755962372E0,-1.565294952E0,1.002155793E1
1.256249696E1,2.143093414E0,-9.052275696E0,-1.566043396E0,9.433400054E0
1.257253396E1,2.112257538E0,-9.179211731E0,-1.190025330E0,9.493983368E0
1.258257096E1,1.848356323E0,-9.397457886E0,-4.881349182E-1,9.589938035E0
1.259260796E1,1.864971771E0,-9.362131348E0,-1.501377869E-1,9.547259525E0
1.260264496E1,1.688788147E0,-9.390572205E0,-3.604504395E-1,9.548024731E0
1.261268196E1,1.593885498E0,-9.288484497E0,-7.846682739E-1,9.456855690E0
1.262271996E1,1.396895142E0,-9.380393372E0,-1.311273193E0,9.574055213E0
1.263275696E1,1.081351318E0,-9.811347198E0,-1.829645233E0,1.003889716E1
1.264279396E1,1.318009186E0,-9.740993500E0,-2.017354889E0,1.003463120E1
1.265283096E1,1.556613007E0,-9.271419983E0,-1.803300018E0,9.572573505E0
1.266286796E1,1.485959930E0,-9.057215424E0,-1.349892883E0,9.277038263E0
1.267290496E1,1.590742035E0,-8.973988495E0,-8.089178467E-1,9.149714630E0
1.268294196E1,1.740879822E0,-9.476942596E0,-5.276527405E-1,9.649949272E0
1.269297896E1,1.857637024E0,-9.891879730E0,-7.932005310E-1,1.009600253E1
1.270301596E1,2.235750732E0,-1.009410919E1,-1.393751678E0,1.043226560E1
1.271305250E1,2.850671997E0,-9.952503662E0,-1.585353241E0,1.047339510E1
1.272308950E1,3.029849396E0,-9.648485870E0,-1.518442383E0,1.022638422E1
1.273312650E1,2.837798767E0,-9.619146881E0,-1.342258759E0,1.011843600E1
1.274316350E1,2.165995789E0,-9.702523499E0,-1.314266968E0,1.002785110E1
1.275320050E1,1.309027863E0,-9.659712524E0,-1.312770081E0,9.836003522E0
1.276323750E1,1.104553070E0,-9.466614075E0,-1.355581055E0,9.626755399E0
1.277327450E1,1.139580231E0,-9.696985016E0,-1.351240082E0,9.856774891E0
1.278331150E1,1.564845886E0,-9.934990082E0,-1.351988525E0,1.014793790E1
1.279334850E1,1.962718506E0,-9.965077515E0,-1.347647552E0,1.024554477E1
1.280338550E1,1.667532349E0,-9.942324829E0,-1.328936462E0,1.016840987E1
1.281342250E1,1.660047913E0,-9.340276794E0,-1.445993042E0,9.596219336E0
1.282345950E1,1.268162842E0,-8.998537445E0,-1.591041412E0,9.225688371E0
1.283349650E1,7.006929016E-1,-9.066645813E0,-1.600022736E0,9.233369352E0
1.284353350E1,6.903643799E-1,-9.112300873E0,-1.523382111E0,9.264519590E0
1.285357050E1,9.915380859E-1,-9.142388306E0,-1.515298920E0,9.320007646E0
1.286360750E1,1.101708984E0,-9.620943146E0,-1.394200745E0,9.783665234E0
1.287364450E1,1.629361725E0,-1.010204269E1,-1.232387238E0,1.030654474E1
1.288368150E1,2.260149994E0,-9.964628448E0,-1.309177551E0,1.030126419E1
1.289371850E1,2.453847198E0,-9.959838409E0,-1.562750244E0,1.037602696E1
1.290375550E1,2.520308990E0,-1.003408401E1,-1.491498413E0,1.045272055E1
1.291379250E1,2.334245911E0,-9.459129639E0,-1.473685455E0,9.853709267E0
1.292382950E1,1.858684845E0,-9.052575073E0,-1.357077942E0,9.340529179E0
1.293386650E1,1.497785339E0,-8.941955109E0,-1.181493073E0,9.143185876E0
1.294390350E1,1.267115021E0,-8.835077362E0,-1.112636261E0,8.994561241E0
1.295394050E1,1.062191162E0,-9.211993561E0,-9.488768005E-1,9.321450671E0
1.296397750E1,1.113833771E0,-9.798773346E0,-7.851173401E-1,9.893078085E0
1.297401550E1,1.268462219E0,-1.014156052E1,-8.349636841E-1,1.025462873E1
1.298405250E1,1.410217438E0,-1.036295013E1,-1.162033539E0,1.052282142E1
1.299408950E1,1.216669922E0,-9.933493195E0,-1.407073975E0,1.010615802E1
1.300412650E1,1.504072266E0,-9.310937805E0,-1.329984283E0,9.524949049E0
1.301416350E1,1.663939819E0,-9.363328857E0,-1.046473846E0,9.567430717E0
1.302420050E1,1.562750244E0,-9.174122314E0,-1.127904510E0,9.374373427E0
1.303423750E1,8.267308044E-1,-9.455387421E0,-1.506167908E0,9.610222519E0
1.304427450E1,7.206015015E-1,-9.430838470E0,-1.682052155E0,9.606730986E0
1.305431150E1,1.748064880E0,-9.016500092E0,-1.670226746E0,9.335023412E0
1.306434850E1,1.959275665E0,-8.935518494E0,-1.381327515E0,9.251503531E0
1.307438550E1,1.289718018E0,-9.225615234E0,-1.770069122E0,9.482008949E0
1.308442250E1,5.059478760E-1,-1.008408005E1,-2.490970001E0,1.039949928E1
1.309445950E1,6.536906433E-1,-1.028002258E1,-2.828667755E0,1.068211295E1
1.310449650E1,8.842112732E-1,-1.020742355E1,-2.723735962E0,1.060151229E1
1.311453350E1,1.045126648E0,-1.013841705E1,-2.525997162E0,1.050049769E1
1.312457050E1,1.468146973E0,-9.908495178E0,-2.066452789E0,1.022760770E1
1.313460750E1,1.780697021E0,-9.714049530E0,-1.653760986E0,1.001341927E1
1.314464450E1,2.104324036E0,-9.270072784E0,-1.726210327E0,9.661378327E0
1.315468150E1,1.279090118E0,-9.738448792E0,-1.248703308E0,9.901147224E0
1.316471850E1,6.655160522E-1,-1.024319916E1,-1.147214355E0,1.032870473E1
1.317475550E1,4.261637878E-1,-1.018482056E1,-1.050515442E0,1.024772014E1
1.318479250E1,1.586700439E-1,-1.026445496E1,-8.641529846E-1,1.030198875E1
1.319482950E1,4.490661621E-4,-1.008033783E1,-5.986051941E-1,1.009809582E1
1.320486650E1,2.463876343E-1,-9.704319763E0,-6.390211487E-1,9.728457070E0
1.321490350E1,4.986131287E-1,-9.509874115E0,-1.141825562E0,9.591146248E0
1.322494050E1,6.713539124E-1,-9.466464386E0,-1.747915192E0,9.649863811E0
1.323497750E1,1.087189178E0,-9.369915161E0,-2.467019806E0,9.750050111E0
1.324501450E1,1.376088409E0,-9.752220154E0,-3.024011536E0,1.030262408E1
1.325505150E1,1.776505737E0,-1.033376083E1,-3.141068115E0,1.094572494E1
1.326508850E1,2.424059143E0,-1.024514511E1,-2.685415649E0,1.086510553E1
1.327512550E1,3.095862122E0,-9.472751312E0,-2.164349213E0,1.019812665E1
1.328516250E1,3.225342865E0,-8.920549622E0,-1.708397369E0,9.638343412E0
1.329520050E1,3.238216095E0,-8.850046234E0,-7.048841858E-1,9.450197011E0
1.330523750E1,3.630250854E0,-9.177415466E0,-3.270698547E-1,9.874748128E0
1.331527450E1,4.019291840E0,-8.610544281E0,-8.598120117E-1,9.541250254E0
1.332531150E1,4.142036591E0,-8.160879364E0,-1.295256500E0,9.243057314E0
1.333534850E1,3.718866577E0,-8.429420929E0,-1.231040039E0,9.295190444E0
1.334538550E1,2.497556305E0,-9.160949707E0,-1.223854980E0,9.573850220E0
1.335542250E1,1.196461945E0,-9.500743103E0,-1.490300903E0,9.691059667E0
1.336545950E1,2.200424194E-1,-9.519454193E0,-1.930236053E0,9.715669716E0
1.337549650E1,3.796105957E-1,-9.475745087E0,-2.319426727E0,9.762867893E0
1.338553350E1,8.620573425E-1,-8.890761566E0,-2.271825714E0,9.216831135E0
1.339557050E1,8.825646973E-1,-8.677305450E0,-2.146236877E0,8.982253785E0
1.340560750E1,9.096583557E-1,-8.786877594E0,-2.064506836E0,9.071873271E0
1.341564450E1,1.030906219E0,-9.099277954E0,-1.969005432E0,9.366782228E0
1.342568150E1,9.773176575E-1,-9.169182587E0,-1.650018768E0,9.367583522E0
1.343571850E1,7.658074951E-1,-9.282347260E0,-1.383722534E0,9.416109590E0
1.344575550E1,9.288185120E-1,-9.574689331E0,-1.604064331E0,9.752456203E0
1.345579250E1,1.145717468E0,-9.182504883E0,-1.515298920E0,9.376950211E0
1.346582950E1,1.401984558E0,-8.561446381E0,-1.847458191E0,8.870007136E0
1.347586650E1,1.279988251E0,-8.307125244E0,-2.190095673E0,8.685805593E0
1.348590350E1,8.963360596E-1,-8.686735840E0,-2.495161285E0,9.082325017E0
1.349594050E1,4.276606750E-1,-9.122629395E0,-2.811902618E0,9.555734250E0
1.350597750E1,1.239422607E-1,-9.166039124E0,-2.981350250E0,9.639506430E0
1.351601450E1,-3.023712158E-2,-9.098828888E0,-2.626737671E0,9.470446252E0
1.352605150E1,-3.980223083E-1,-9.139993286E0,-1.658551025E0,9.297778796E0
1.353608850E1,-7.340734863E-1,-8.551866302E0,-5.953120422E-1,8.603933843E0
1.354612550E1,-4.692741394E-1,-8.353379059E0,-4.026626587E-2,8.366646956E0
1.355616250E1,-6.472540283E-1,-8.889564056E0,4.553530884E-1,8.924720350E0
1.356619950E1,-1.003812561E0,-9.792037354E0,4.037104797E-1,9.851630187E0
1.357623750E1,-1.144220581E0,-9.509125671E0,-1.474433899E-1,9.578854385E0
1.358627450E1,-1.073567505E0,-9.624984741E0,-8.884025574E-1,9.725334830E0
1.359631150E1,-7.719447327E-1,-1.027134064E1,-9.800120544E-1,1.034682371E1
1.360634850E1,-4.547543335E-1,-1.035741165E1,-4.340972900E-1,1.037647426E1
1.361638550E1,-1.392105103E-1,-1.019664597E1,-2.639012146E-1,1.020101036E1
1.362642250E1,-1.055305481E-1,-9.574689331E0,-1.467847595E0,9.687124911E0
1.363645950E1,4.406835938E-1,-9.584119720E0,-3.128494263E0,1.009143346E1
1.364649650E1,1.675765228E0,-1.025427612E1,-3.202440491E0,1.087262586E1
1.365653350E1,1.992506561E0,-1.125973526E1,-2.278412018E0,1.165945461E1
1.366657050E1,1.682950287E0,-1.169892197E1,-2.015858002E0,1.199002837E1
1.367660750E1,1.469045105E0,-1.182136734E1,-2.176024933E0,1.210941385E1
1.368664450E1,1.923050995E0,-1.142948227E1,-1.948947144E0,1.175285434E1
1.369668150E1,2.114951935E0,-1.050500473E1,-2.152074738E0,1.092975625E1
1.370671850E1,1.710043945E0,-9.869725800E0,-2.793041840E0,1.039888554E1
1.371675596E1,1.534309387E0,-9.337582397E0,-3.044967957E0,9.940642845E0
1.372679296E1,1.129251709E0,-8.604107666E0,-2.817890167E0,9.123945591E0
1.373682996E1,1.796264648E-2,-8.414751434E0,-2.508782959E0,8.780794742E0
1.374686696E1,-2.435435486E-1,-9.124126282E0,-2.656226349E0,9.506026104E0
1.375690396E1,1.682501221E-1,-9.613758087E0,-2.121089172E0,9.846404011E0
1.376694096E1,9.616003418E-1,-9.680070190E0,-1.155147858E0,9.796060467E0
1.377697796E1,1.840722198E0,-9.207652588E0,-2.028282166E-1,9.392031925E0
1.378701496E1,2.170636139E0,-8.987759857E0,4.340972900E-1,9.256345335E0
1.379705196E1,1.957329712E0,-8.730295258E0,1.004860382E0,9.003273809E0
1.380708896E1,1.362017670E0,-8.616980896E0,1.367256775E0,8.830449761E0
1.381712596E1,9.392967224E-1,-8.761280823E0,1.416055298E0,8.924546632E0
1.382716296E1,6.132746887E-1,-9.135802002E0,1.069675598E0,9.218632759E0
1.383720096E1,7.533833313E-1,-9.452842712E0,6.653663635E-1,9.506131400E0
1.384723796E1,8.144563293E-1,-9.861642609E0,2.814147949E-1,9.899218572E0
1.385727496E1,2.579136658E-1,-1.037717056E1,-2.956352234E-1,1.038458418E1
1.386731196E1,-2.044747925E-1,-1.083940933E1,-1.302291870E0,1.091927510E1
1.387734896E1,-6.756948853E-1,-1.050665131E1,-2.246977386E0,1.076546295E1
1.388738596E1,-1.027762756E0,-9.425000610E0,-2.645448761E0,9.843034691E0
1.389742296E1,-1.077309723E0,-9.475745087E0,-2.720592499E0,9.917255907E0
1.390745996E1,-1.436712341E0,-9.507928162E0,-1.955982513E0,9.812782881E0
1.391749696E1,-2.319127350E0,-1.069615723E1,-1.640438690E0,1.106694042E1
1.392753396E1,-2.320025482E0,-1.114612152E1,-1.519041138E0,1.148590568E1
1.393757096E1,-1.692380676E0,-1.133577713E1,-1.687740326E0,1.158501027E1
1.394760796E1,-3.694317627E-1,-1.138382721E1,-1.534459076E0,1.149271797E1
1.395764496E1,3.100502472E0,-9.062753906E0,-9.139993286E-1,9.621955036E0
1.396768196E1,2.733765106E0,-9.664502563E0,-1.001417542E0,1.009350873E1
1.397771896E1,1.279688873E0,-1.042701691E1,-6.339317322E-1,1.052436006E1
1.398775596E1,6.649172974E-1,-1.003408401E1,-1.872605896E-1,1.005783394E1
1.399779296E1,5.363346863E-1,-9.649683380E0,-2.993774414E-3,9.664577238E0
1.400782996E1,4.490661621E-1,-9.250613251E0,3.327580261E-1,9.267482605E0
1.401786696E1,3.755690002E-1,-8.883726196E0,1.329235840E-1,8.892654940E0
1.402790396E1,1.096020813E0,-8.455167389E0,-3.200344849E-1,8.531912990E0
1.403794096E1,2.075583801E0,-8.068970490E0,-2.095642090E-1,8.334281615E0
1.404797796E1,2.296524353E0,-8.422535248E0,-1.269360352E-1,8.730935623E0
1.405801496E1,1.275946655E0,-9.158255310E0,-1.712438965E-1,9.248297393E0
1.406805196E1,1.106199646E-1,-9.936187592E0,-1.504371643E-1,9.937942039E0
1.407808996E1,-2.935395813E-1,-1.038061340E1,-5.884263611E-1,1.040142037E1
1.408812696E1,-4.598437500E-1,-1.127290787E1,-5.972579956E-1,1.129808060E1
1.409816396E1,-2.146536255E-1,-1.189561295E1,1.092727661E-2,1.189755449E1
1.410820096E1,3.891906738E-3,-1.168125870E1,5.204676819E-1,1.169284852E1
1.411823796E1,2.439926147E-1,-1.102292770E1,3.137475586E-1,1.103009089E1
1.412827496E1,2.405497742E-1,-1.038166122E1,-3.318598938E-1,1.038974903E1
1.413831196E1,3.667373657E-2,-9.908046112E0,-7.006929016E-1,9.932859269E0
1.414834896E1,-4.150868225E-1,-9.685758362E0,-5.912704468E-1,9.712662501E0
1.415838596E1,-1.004710693E0,-9.284891968E0,-6.403683472E-1,9.361022062E0
1.416842296E1,-1.386566620E0,-9.068891144E0,-6.601272583E-1,9.197995519E0
1.417845996E1,-1.414109344E0,-9.032666473E0,-2.338137817E-1,9.145678638E0
1.418849696E1,-1.306034088E0,-9.358987885E0,-2.963836670E-2,9.449722625E0
1.419853396E1,-1.129102020E0,-9.826615448E0,7.828720093E-2,9.891580835E0
1.420857096E1,-6.981481934E-1,-9.760153656E0,9.041198730E-2,9.785508909E0
1.421860796E1,1.257385254E-2,-9.537566528E0,-7.334747314E-2,9.537856847E0
1.422864496E1,3.107537842E-1,-9.689051514E0,-2.321672058E-1,9.696813330E0
1.423868196E1,7.764353943E-1,-9.789642334E0,-4.156855774E-1,9.829178167E0
1.424871896E1,1.221909027E0,-9.762698364E0,-4.355941772E-1,9.848506654E0
1.425875596E1,1.580712891E0,-9.493707733E0,-4.153862000E-1,9.633363144E0
1.426879296E1,1.691183167E0,-9.289532318E0,-1.827699280E-1,9.443988354E0
1.427882996E1,9.141490173E-1,-9.685608673E0,-1.561253357E-1,9.729905391E0
1.428886696E1,3.583547974E-1,-9.870174866E0,-2.092648315E-1,9.878894767E0
1.429890396E1,1.535806274E-1,-9.713001709E0,-4.197271729E-1,9.723279288E0
1.430894096E1,-7.259902954E-2,-9.688901825E0,-8.259823608E-1,9.724316740E0
1.431897896E1,-8.098159790E-2,-9.927954712E0,-7.955955505E-1,9.960111197E0
1.432901596E1,4.849914551E-2,-1.033840118E1,-7.544311523E-2,1.033879020E1
1.433905296E1,7.885601807E-1,-9.985884247E0,3.317102051E-1,1.002246192E1
1.434908996E1,1.080153809E0,-9.596992950E0,2.016307068E-1,9.659692587E0
1.435912696E1,6.592291260E-1,-9.751322021E0,1.160087585E-1,9.774268374E0
1.436916396E1,-5.328918457E-2,-1.019365219E1,2.282752991E-1,1.019634711E1
1.437920096E1,-4.846920776E-1,-1.048225204E1,3.046165466E-1,1.049787243E1
1.438923796E1,-5.818400574E-1,-1.054152878E1,1.598675537E-1,1.055878423E1
1.439927496E1,-4.340972900E-1,-1.074645264E1,-8.711883545E-2,1.075556946E1
1.440931196E1,1.920506287E-1,-1.039154068E1,-2.077679443E-1,1.039539170E1
1.441934896E1,6.053411865E-1,-1.015308655E1,-5.269042969E-2,1.017125266E1
1.442938596E1,8.321195984E-1,-9.982740784E0,-4.520599365E-2,1.001746376E1
1.443942296E1,6.761439514E-1,-9.900711365E0,1.173559570E-1,9.924466162E0
1.444945996E1,1.987866211E-1,-9.653126221E0,4.855902100E-1,9.667376056E0
1.445949696E1,-3.966751099E-1,-9.139394531E0,1.100212097E-1,9.148660460E0
1.446953396E1,-5.441184998E-1,-8.728199615E0,-7.665559387E-1,8.778675383E0
1.447957096E1,-7.545808411E-1,-9.139244843E0,-9.376501465E-1,9.218154714E0
1.448960796E1,-5.938151550E-1,-1.056368271E1,-1.055604858E0,1.063288815E1
1.449964496E1,1.772314453E-1,-1.089449478E1,-1.505868530E-1,1.089697683E1
1.450968196E1,9.500743103E-1,-1.076695999E1,-1.740879822E-1,1.081019774E1
1.451971896E1,9.403445435E-1,-1.033525772E1,-1.089733887E-1,1.037851990E1
1.452975596E1,5.209167480E-1,-9.904902649E0,2.653981018E-1,9.922141245E0
1.453979296E1,-4.355941772E-2,-9.767638092E0,5.878276062E-1,9.785407126E0
1.454982996E1,-5.240602112E-1,-9.449998627E0,6.807843018E-1,9.488971515E0
1.455986796E1,-8.696914673E-1,-9.153614960E0,1.752854919E-1,9.196507766E0
1.456990496E1,-7.512876892E-1,-9.107211456E0,2.053729248E-1,9.140454679E0
1.457994196E1,-7.062313843E-1,-9.293274536E0,7.667056274E-1,9.351553448E0
1.458997896E1,-6.471043396E-1,-9.721533966E0,1.208137665E0,9.817665878E0
1.460001596E1,-2.496807861E-1,-1.019919067E1,9.991722107E-1,1.025105731E1
1.461005296E1,3.722758484E-1,-1.025233017E1,6.267466736E-1,1.027821359E1
1.462008996E1,9.208850098E-1,-9.862690430E0,4.017645264E-1,9.913733225E0
1.463012696E1,1.200204163E0,-9.896819458E0,2.492317200E-1,9.972444127E0
1.464016396E1,1.869612122E-1,-1.045994843E1,8.306227112E-1,1.049454190E1
1.465020096E1,-1.466949463E-1,-1.025023453E1,9.533674622E-1,1.029552023E1
1.466023796E1,1.463955688E-1,-9.577084351E0,8.590635681E-1,9.616650484E0
1.467027496E1,1.493594055E0,-8.747509460E0,5.942642212E-2,8.874304280E0
1.468031196E1,2.033221893E0,-8.575966187E0,-3.149450684E-1,8.819318437E0
1.469034896E1,1.921404419E0,-8.802145844E0,-4.194277954E-1,9.019173247E0
1.470038596E1,1.311871948E0,-9.054221649E0,-2.356100464E-1,9.151800357E0
1.471042296E1,7.810757446E-1,-9.325756989E0,-5.644761658E-1,9.375417648E0
1.472046000E1,1.552272034E-1,-9.672436066E0,-8.069718933E-1,9.707281729E0
1.473049700E1,-2.218386841E-1,-1.009126511E1,-5.456153870E-1,1.010843905E1
1.474053400E1,-1.621128845E-1,-1.033735336E1,-8.726852417E-2,1.033899274E1
1.475057100E1,-2.451901245E-1,-1.024304947E1,1.281335449E-1,1.024678480E1
1.476060800E1,-3.044668579E-1,-1.050171158E1,-1.649569702E-1,1.050741914E1
1.477064500E1,1.428030396E-1,-1.045755341E1,-1.675016785E-1,1.045986963E1
1.478068200E1,8.113128662E-1,-1.015413437E1,-1.592687988E-1,1.018773969E1
1.479072000E1,1.264420624E0,-1.017928207E1,-4.873864746E-1,1.026908412E1
1.480075700E1,9.925859070E-1,-1.019978943E1,-3.019221497E-1,1.025241865E1
1.481079400E1,8.189469910E-1,-1.003109024E1,-2.031275940E-1,1.006651411E1
1.482083100E1,6.400689697E-1,-9.418114929E0,-3.086581421E-1,9.444884698E0
1.483086800E1,5.507048035E-1,-8.828491058E0,-4.016148376E-1,8.854762822E0
1.484090500E1,2.302212524E-1,-8.814420319E0,-1.697470093E-1,8.819060121E0
1.485094200E1,-4.297563171E-1,-9.211993561E0,-4.939727783E-3,9.222013894E0
1.486097900E1,-7.396119690E-1,-9.066496124E0,1.410067749E-1,9.097706345E0
1.487101600E1,-1.041683807E0,-9.041947174E0,-9.041198730E-2,9.102202381E0
1.488105300E1,-9.086105347E-1,-9.419611816E0,1.222956848E-1,9.464122575E0
1.489109000E1,-4.007167053E-1,-9.216933289E0,6.171665955E-1,9.246260202E0
1.490112700E1,3.010240173E-1,-9.113049316E0,1.094074860E0,9.183424367E0
1.491116400E1,5.689668274E-1,-9.029822388E0,1.557062073E0,9.180732972E0
1.492120100E1,5.240602112E-1,-9.436227264E0,1.046623535E0,9.508545889E0
1.493123800E1,-9.954299927E-2,-1.023406815E1,5.924679565E-1,1.025168659E1
1.494127500E1,-7.673043823E-1,-1.076710968E1,9.714797974E-2,1.079485269E1
1.495131200E1,-1.297052765E0,-1.105600891E1,-4.167333984E-1,1.113962951E1
1.496134900E1,-1.591939545E0,-1.118578903E1,-7.450007629E-1,1.132303731E1
1.497138600E1,-1.415007477E0,-1.106618774E1,-6.873706055E-1,1.117744316E1
1.498142300E1,-1.336420898E0,-1.073792038E1,-1.844165039E-1,1.082233636E1
1.499146000E1,-1.369801483E0,-1.013706985E1,4.360432434E-1,1.023848988E1
1.500149700E1,-1.284029846E0,-9.598340149E0,1.088536377E0,9.744833385E0
1.501153500E1,-8.993298340E-1,-9.493707733E0,-3.263214111E-2,9.536264758E0
1.502157200E1,-8.517288208E-1,-9.926008759E0,-6.568341064E-1,9.984113526E0
1.503160900E1,-1.107097778E0,-1.069376221E1,-3.257226562E-1,1.075585008E1
1.504164600E1,-1.154698792E0,-1.122066650E1,-1.254391479E-1,1.128062148E1
1.505168300E1,-8.385562134E-1,-1.114193024E1,-5.872288513E-1,1.118886159E1
1.506172000E1,-6.198609924E-1,-1.093850327E1,-1.335672455E0,1.103716912E1
1.507175700E1,-1.755848694E-1,-1.043090881E1,-2.048789520E0,1.063166155E1
1.508179400E1,7.020401001E-2,-1.023242157E1,-2.412383423E0,1.051318094E1
1.509183100E1,9.520202637E-2,-1.003213806E1,-2.413431244E0,1.031879392E1
1.510186800E1,-4.790039062E-3,-9.828561401E0,-2.105222168E0,1.005149753E1
1.511190500E1,-1.980381775E-1,-9.671088867E0,-1.459465027E0,9.782597669E0
1.512194200E1,-6.860234070E-1,-9.421108704E0,-5.745053101E-1,9.463507472E0
1.513197900E1,-9.018745422E-1,-9.053622894E0,4.418811035E-1,9.109156059E0
1.514201600E1,-7.867639160E-1,-8.765921173E0,1.470092926E0,8.923090534E0
1.515205300E1,-7.747888184E-1,-8.446784821E0,2.233355713E0,8.771336800E0
1.516209000E1,-1.144519958E0,-8.681945801E0,2.731370087E0,9.173139668E0
1.517212700E1,-1.720522156E0,-9.676178284E0,2.978805542E0,1.026946470E1
1.518216400E1,-1.853146362E0,-1.040845551E1,2.985092468E0,1.098548472E1
1.519220100E1,-1.495390320E0,-1.043480072E1,2.969225464E0,1.095160071E1
1.520223800E1,-1.011895752E0,-1.007105713E1,2.915038147E0,1.053316534E1
1.521227500E1,-3.427871704E-1,-9.618248749E0,2.376308441E0,9.913377520E0
1.522231300E1,4.790039062E-1,-9.442813568E0,1.949396210E0,9.653824030E0
1.523235000E1,1.515598297E0,-8.980574799E0,2.054777069E0,9.336480639E0
1.524238700E1,1.962119751E0,-9.201814728E0,2.196232910E0,9.661612039E0
1.525242400E1,1.145418091E0,-1.075139236E1,2.277813263E0,1.104956350E1
1.526246100E1,-1.857637024E-1,-1.200039505E1,1.288969574E0,1.207085051E1
1.527249800E1,-4.444258118E-1,-1.091904373E1,-9.003776550E-1,1.096511333E1
1.528253500E1,-7.162605286E-1,-9.428742828E0,-3.677552490E0,1.014586678E1
1.529257200E1,-1.379531250E0,-8.339008942E0,-5.355563049E0,1.000620968E1
1.530260900E1,-2.430196381E0,-7.699389038E0,-4.921166382E0,9.455386008E0
1.531264600E1,-3.028202820E0,-6.875652008E0,-2.807711334E0,8.020464188E0
1.532268300E1,-3.817361755E0,-7.013515320E0,-1.089135132E0,8.059023716E0
1.533272000E1,-4.603377228E0,-8.844956818E0,1.130149841E-1,9.971816053E0
1.534275700E1,-4.828509064E0,-9.502239990E0,5.837860107E-1,1.067463680E1
1.535279400E1,-3.924389191E0,-8.957672424E0,6.836283875E-1,9.803472525E0
1.536283100E1,-2.971919861E0,-8.321495361E0,7.412585449E-1,8.867302687E0
1.537286800E1,-2.476899261E0,-8.095764771E0,8.878038025E-1,8.512616094E0
1.538290500E1,-2.264940033E0,-7.927814026E0,1.321751404E0,8.350282352E0
1.539294200E1,-2.197879486E0,-8.018974457E0,1.762584686E0,8.499490005E0
1.540297900E1,-2.155816956E0,-8.399932251E0,1.829645233E0,8.863070024E0
1.541301600E1,-2.087558899E0,-8.828940125E0,1.513652344E0,9.197783934E0
1.542305300E1,-1.899849243E0,-9.000483398E0,9.086105347E-1,9.243576237E0
1.543309000E1,-1.809137878E0,-9.203311615E0,3.308120728E-2,9.379499929E0
1.544312800E1,-1.577569427E0,-9.109606476E0,-9.636959839E-1,9.295287268E0
1.545316500E1,-1.313518524E0,-8.676107941E0,-1.993255005E0,8.998513512E0
1.546320200E1,-1.470691681E0,-8.397387543E0,-2.726430359E0,8.950557193E0
1.547323900E1,-1.827699280E0,-8.366851044E0,-3.213517456E0,9.147205884E0
1.548327600E1,-2.537074127E0,-8.970695343E0,-3.261866913E0,9.876735079E0
1.549331300E1,-3.558250580E0,-1.015248779E1,-2.540816345E0,1.105395419E1
1.550335000E1,-3.863765259E0,-1.025233017E1,-1.383572845E0,1.104324362E1
1.551338700E1,-3.664080505E0,-9.842931519E0,-6.451583862E-1,1.052259551E1
1.552342400E1,-3.421584778E0,-9.073381805E0,-9.490264893E-2,9.697551562E0
1.553346100E1,-3.095862122E0,-8.230035553E0,3.200344849E-1,8.798878880E0
1.554349800E1,-2.467319183E0,-6.989565125E0,5.541476440E-1,7.432951244E0
1.555353500E1,-1.636546783E0,-5.678591309E0,5.760021973E-1,5.937715314E0
1.556357200E1,-1.405577087E0,-5.143154755E0,7.072792053E-1,5.378469267E0
1.557360900E1,-1.672771454E0,-5.248685303E0,7.714956665E-1,5.562559421E0
1.558364600E1,-1.706900482E0,-5.857918396E0,9.363029480E-1,6.172955564E0
1.559368300E1,-1.597777405E0,-6.448440399E0,1.563798065E0,6.825008469E0
1.560372000E1,-1.437760162E0,-6.703360291E0,1.841919708E0,7.098933841E0
1.561375700E1,-2.103874969E0,-7.246281281E0,2.411335602E0,7.921453255E0
1.562379400E1,-1.793121185E0,-6.582411804E0,2.332599335E0,7.210024161E0
1.563383100E1,-6.812333679E-1,-5.220992889E0,2.374063110E0,5.775726907E0
1.564386900E1,-1.601220245E0,-6.381379852E0,2.709964600E0,7.115463669E0
1.565390600E1,-1.969604187E0,-8.034242706E0,3.379073181E0,8.935688674E0
1.566394300E1,-1.444047089E0,-9.745035095E0,4.184847565E0,1.070345412E1
1.567398000E1,-1.403930511E0,-1.149908752E1,3.603606262E0,1.213202427E1
1.568401700E1,-1.560504913E0,-1.309417053E1,3.939507751E0,1.376271045E1
1.569405400E1,-8.619076538E-1,-1.770084091E1,4.683311005E0,1.833019519E1
1.570409100E1,1.434317322E0,-2.172626999E1,5.181026001E0,2.238149021E1
1.571412800E1,4.606969757E0,-2.420017548E1,4.080813904E0,2.497049670E1
1.572416433E1,9.478140106E0,-2.269864792E1,-6.327491913E0,2.539883681E1
1.573420133E1,2.111568970E1,-2.001128632E1,-1.507395355E1,3.276504246E1
1.574423833E1,1.292038193E1,-1.960562988E1,4.304448853E0,2.387143214E1
1.575427533E1,1.544338531E0,-1.442205917E1,5.502407684E0,1.551313194E1
1.576431233E1,1.029379395E1,-8.192763062E0,5.105882263E0,1.411217893E1
1.577434933E1,1.947001190E1,-2.196382599E0,-4.100123749E0,2.001790385E1
1.578438633E1,1.629182098E1,-7.830216980E-1,-4.420457611E0,1.689902362E1
1.579442333E1,1.004351440E1,-3.825444946E0,-4.261039124E0,1.156125707E1
1.580446033E1,8.289611664E0,-4.792883148E0,-3.905827789E0,1.034141582E1
1.581449733E1,5.504054260E0,-6.440656586E0,-2.301913147E0,8.779263904E0
1.582453433E1,3.821103973E0,-7.844138031E0,-3.758683777E-1,8.733419380E0
1.583457133E1,2.603386230E0,-8.763526154E0,1.079105988E0,9.205513578E0
1.584460833E1,2.025138702E0,-9.471404114E0,2.004781036E0,9.890795198E0
1.585464633E1,1.755249939E0,-9.827214203E0,2.828667755E0,1.037576034E1
1.586468333E1,2.172432404E0,-9.814340973E0,3.600013733E0,1.067711806E1
1.587472033E1,2.136058044E0,-9.858349457E0,4.312831421E0,1.097042902E1
1.588475733E1,7.360194397E-1,-1.001567230E1,4.686604156E0,1.108240384E1
1.589479433E1,-4.186793518E-1,-1.021161484E1,4.156556396E0,1.103310161E1
1.590483133E1,-3.538641357E-1,-1.017718643E1,2.228865051E0,1.042440324E1
1.591486833E1,4.182302856E-1,-9.622290344E0,-9.620494080E-1,9.679304061E0
1.592490533E1,5.644761658E-1,-9.233698425E0,-3.042722626E0,9.738479395E0
1.593494233E1,7.629634094E-1,-8.489895172E0,-2.896327057E0,9.002729787E0
1.594497933E1,1.146914978E0,-7.837102661E0,-2.529140625E0,8.314574216E0
1.595501633E1,1.617686005E0,-7.721842346E0,-1.748513947E0,8.080907019E0
1.596505333E1,1.894610138E0,-7.504793701E0,-8.984317017E-1,7.792217630E0
1.597509033E1,2.103725281E0,-7.222630463E0,-3.129991150E-1,7.529277475E0
1.598512733E1,1.904339905E0,-7.065756683E0,2.592608643E-1,7.322475277E0
1.599516433E1,1.584754486E0,-6.755152588E0,7.668553162E-1,6.980802271E0
1.600520133E1,1.736089783E0,-6.359076233E0,5.337899780E-1,6.613379621E0
1.601523833E1,2.265838165E0,-6.101312256E0,-1.995350647E-1,6.511516573E0
1.602527533E1,2.909948730E0,-6.021378479E0,-7.777825928E-1,6.732736900E0
1.603531233E1,3.369642792E0,-6.242319031E0,-8.229885864E-1,7.141312879E0
1.604535033E1,4.097129974E0,-6.723418579E0,-7.185058594E-1,7.906142048E0
1.605538733E1,4.388424225E0,-7.477849731E0,-9.349557495E-1,8.720702153E0
1.606542433E1,4.670288086E0,-8.264913025E0,-8.783734131E-1,9.533725293E0
1.607546133E1,4.557722168E0,-9.152866516E0,-8.473878479E-1,1.025991535E1
1.608549833E1,4.090693359E0,-9.758806458E0,-8.520281982E-1,1.061574433E1
1.609553533E1,3.983815613E0,-9.865684204E0,-7.920030212E-1,1.066910401E1
1.610557233E1,4.195774841E0,-9.848470001E0,-8.979826355E-1,1.074259097E1
1.611560933E1,4.387376404E0,-9.739646301E0,-1.210532684E0,1.075058934E1
1.612564633E1,4.191134491E0,-9.793683929E0,-8.934919739E-1,1.069019088E1
1.613568333E1,3.785627747E0,-1.003004242E1,-3.412902832E-1,1.072609936E1
1.614572033E1,3.588936768E0,-1.015608032E1,-1.972897339E-1,1.077336335E1
1.615575733E1,3.788172455E0,-1.034663406E1,-3.980223083E-1,1.102549358E1
1.616579433E1,4.259242859E0,-1.069196594E1,-2.077679443E-1,1.151097098E1
1.617583133E1,5.009482727E0,-1.072070618E1,-1.366658020E-1,1.183415124E1
1.618586833E1,5.504353638E0,-1.134550690E1,-1.704954529E-1,1.261140374E1
1.619590533E1,5.774092712E0,-1.297292267E1,5.788462830E-1,1.421168295E1
1.620594233E1,6.169121246E0,-1.290930496E1,1.020278320E0,1.434395968E1
1.621597933E1,6.061345367E0,-1.094014984E1,6.429130554E-1,1.252358269E1
1.622601633E1,4.663103027E0,-1.006177643E1,-1.358874207E0,1.117275319E1
1.623605433E1,4.688699799E0,-9.713151398E0,-2.853216705E0,1.115661514E1
1.624609133E1,5.648054810E0,-8.714577942E0,-2.469714203E0,1.067444987E1
1.625612833E1,5.373226318E0,-7.858358459E0,-2.382295990E0,9.813291646E0
1.626616533E1,4.229005737E0,-8.132588196E0,-2.976859589E0,9.637695435E0
1.627620233E1,3.333418121E0,-9.028325500E0,-2.372266846E0,9.912113180E0
1.628623933E1,3.267106018E0,-1.154878418E1,-5.816903687E-1,1.201610425E1
1.629627633E1,2.711162109E0,-1.109612549E1,3.683839417E-1,1.142847792E1
1.630631333E1,1.192869415E0,-7.190148010E0,8.375083923E-1,7.336387814E0
1.631635033E1,5.664221191E-1,-3.986809387E0,3.031645660E0,5.040472053E0
1.632638733E1,7.939489746E-1,-4.315226440E0,4.234244843E0,6.097570302E0
1.633642433E1,1.214274902E0,-8.327632599E0,3.557951202E0,9.136900185E0
1.634646133E1,7.908055115E-1,-1.007345215E1,9.900411987E-1,1.015283178E1
1.635649833E1,6.051914978E-1,-8.965306549E0,8.054750061E-1,9.021738649E0
1.636653533E1,1.168919220E0,-8.623267822E0,1.707798615E0,8.868128111E0
1.637657233E1,4.367916870E-1,-9.121132507E0,9.993218994E-1,9.186103061E0
1.638660933E1,-3.601510620E-1,-9.263935547E0,7.997868347E-1,9.305367783E0
1.639664633E1,-5.075944519E-1,-9.908195801E0,1.606908417E0,1.005048013E1
1.640668333E1,8.202941895E-2,-1.176328812E1,1.513053589E0,1.186048091E1
1.641672033E1,1.228944397E0,-1.196162567E1,2.219584351E0,1.222772864E1
1.642675833E1,2.702779541E0,-1.104957230E1,3.491339722E0,1.189905535E1
1.643679533E1,4.007466431E0,-1.023137375E1,2.444267120E0,1.125678630E1
1.644683233E1,4.921914825E0,-9.786049805E0,4.411326599E-1,1.096296558E1
1.645686933E1,5.540278931E0,-8.724307709E0,1.306333466E0,1.041704098E1
1.646690633E1,5.654192047E0,-7.871680756E0,2.500550079E0,1.000929550E1
1.647694333E1,4.371808777E0,-8.234077148E0,1.884730682E0,9.511306336E0
1.648698033E1,1.955683136E0,-8.512348480E0,1.565145264E0,8.873243650E0
1.649701733E1,5.471122742E-1,-8.914711761E0,1.242865448E0,9.017545794E0
1.650705433E1,7.551795959E-1,-8.801996155E0,1.999392242E0,9.057759208E0
1.651709133E1,8.509803772E-1,-8.825347595E0,2.761008453E0,9.286231499E0
1.652712833E1,1.011147308E0,-9.560169525E0,2.693349152E0,9.983656138E0
1.653716533E1,8.795709229E-1,-1.067729645E1,1.798659668E0,1.086340099E1
1.654720233E1,4.547543335E-1,-1.184292252E1,9.547146606E-1,1.189004185E1
1.655723933E1,6.372248840E-1,-1.258897110E1,5.692662048E-1,1.261793616E1
1.656727633E1,1.440753937E0,-1.300136353E1,7.207511902E-1,1.310079035E1
1.657731333E1,2.002835083E0,-1.294837372E1,1.175655212E0,1.315499508E1
1.658735033E1,1.775308228E0,-1.130524063E1,1.887275391E0,1.159836167E1
1.659738733E1,1.706900482E0,-8.759334869E0,1.746567993E0,9.093401804E0
1.660742533E1,1.668131104E0,-8.009544067E0,8.818162537E-1,8.228794411E0
1.661746233E1,1.839524689E0,-8.112230530E0,5.668711853E-1,8.337474329E0
1.662749933E1,2.178270264E0,-8.783434753E0,5.257067871E-1,9.064764478E0
