"Time (s)","Acceleration x (m/s^2)","Acceleration y (m/s^2)","Acceleration z (m/s^2)","Absolute acceleration (m/s^2)"
5.435625091E-3,-1.084644470E0,-1.214125214E0,1.127859604E1,1.139549395E1
1.547262503E-2,-8.601113892E-1,-8.649014282E-1,1.122306152E1,1.128915214E1
2.551062498E-2,-4.080514526E-1,-2.636018372E-1,1.127874573E1,1.128920268E1
3.554862505E-2,-2.347119141E-1,9.684860229E-2,1.106663681E1,1.106954921E1
4.558562499E-2,-3.297642517E-1,2.411485291E-1,1.056517960E1,1.057307510E1
5.562362506E-2,-4.450245667E-1,3.400927734E-1,1.004351440E1,1.005911982E1
6.566162501E-2,-4.706213379E-1,4.767585754E-1,9.766590271E0,9.789538738E0
7.569862506E-2,-3.716770935E-1,5.050497437E-1,9.556127930E0,9.576680015E0
8.573662501E-2,-1.660047913E-1,3.686833191E-1,9.429940338E0,9.438604757E0
9.577462508E-2,3.293151855E-2,2.570155334E-1,9.401649170E0,9.405219220E0
1.058116250E-1,1.658551025E-1,1.624122620E-1,9.497449951E0,9.500286376E0
1.158496251E-1,2.121089172E-1,-7.634124756E-3,9.669442291E0,9.671771435E0
1.258866250E-1,2.043251038E-1,-1.279838562E-1,9.833351440E0,9.836306683E0
1.359246251E-1,2.299218750E-1,-8.382568359E-2,9.978998566E0,9.981998958E0
1.459626250E-1,2.625540161E-1,-1.841171265E-2,1.004815475E1,1.005160124E1
1.559996250E-1,2.338137817E-1,1.751358032E-2,1.011087433E1,1.011359260E1
1.660376251E-1,1.923500061E-1,2.484832764E-2,1.013272888E1,1.013458487E1
1.760756250E-1,1.338217163E-1,8.083190918E-3,1.016655853E1,1.016744245E1
1.861126251E-1,8.711883545E-2,-3.158432007E-2,1.023167313E1,1.023209276E1
1.961506250E-1,1.122665405E-1,-9.415420532E-2,1.021445892E1,1.021550977E1
2.061886251E-1,1.242416382E-1,-1.032852173E-1,1.024050476E1,1.024177922E1
2.162256250E-1,1.408570862E-1,-6.765930176E-2,1.021820114E1,1.021939592E1
2.262636251E-1,1.552272034E-1,-2.395019531E-2,1.019724472E1,1.019845424E1
2.363006250E-1,9.205856323E-2,8.801696777E-2,1.016581009E1,1.016660792E1
2.463386251E-1,5.194198608E-2,2.243833923E-1,1.001642075E1,1.001906834E1
2.563766250E-1,-3.996688843E-2,3.647914124E-1,9.864187317E0,9.871011172E0
2.664136250E-1,-1.724414062E-1,4.260140991E-1,9.719737701E0,9.730597363E0
2.764516250E-1,-2.770738220E-1,4.487667847E-1,9.518406372E0,9.533006944E0
2.864896250E-1,-3.362008667E-1,4.176315308E-1,9.439370728E0,9.454584436E0
2.965266251E-1,-3.022215271E-1,3.453318787E-1,9.360484772E0,9.371727008E0
3.065646250E-1,-2.127076721E-1,2.917433167E-1,9.364226990E0,9.371184868E0
3.166026251E-1,-1.612147522E-1,2.851570129E-1,9.433383179E0,9.439068964E0
3.266396250E-1,-9.999206543E-2,2.670446777E-1,9.480385437E0,9.484672862E0
3.366776251E-1,-7.155120850E-2,2.881507874E-1,9.573641510E0,9.578244214E0
3.467146250E-1,-5.957611084E-2,3.489244080E-1,9.595346375E0,9.601873234E0
3.567526251E-1,-1.092727661E-2,4.138893127E-1,9.560319214E0,9.569280393E0
3.667911250E-1,-8.008346558E-2,4.787045288E-1,9.552086334E0,9.564409272E0
3.768281251E-1,-1.465452576E-1,5.017565918E-1,9.452094269E0,9.466536920E0
3.868661250E-1,-2.158511353E-1,5.023553467E-1,9.442065125E0,9.457882766E0
3.969041250E-1,-3.115022278E-1,4.616400146E-1,9.525142365E0,9.541408817E0
4.069411251E-1,-5.016069031E-1,3.866459656E-1,9.622739410E0,9.643558386E0
4.169791250E-1,-5.752537537E-1,3.335064697E-1,9.781110077E0,9.803685928E0
4.270171251E-1,-5.635780334E-1,4.041595459E-1,9.913584595E0,9.937812871E0
4.370541250E-1,-5.872288513E-1,5.388793945E-1,1.002809647E1,1.005971905E1
4.470921251E-1,-6.206094360E-1,6.497987366E-1,9.990374908E0,1.003070213E1
4.571291250E-1,-6.601272583E-1,7.646099854E-1,9.850116577E0,9.901777265E0
4.671671251E-1,-6.387217712E-1,9.279203796E-1,9.711953888E0,9.777067559E0
4.772051250E-1,-6.665638733E-1,1.071022797E0,9.629625092E0,9.711903862E0
4.872421251E-1,-8.333171082E-1,1.059347076E0,9.506880341E0,9.601948107E0
4.972801250E-1,-1.141975250E0,9.012757874E-1,9.522447968E0,9.632934175E0
5.073181250E-1,-1.514251099E0,5.403762817E-1,9.857900391E0,9.988151132E0
5.173551250E-1,-1.912872162E0,3.891906738E-2,1.024454636E1,1.042167571E1
5.273931250E-1,-2.020049286E0,-1.790277100E-1,1.051997360E1,1.071365925E1
5.374311251E-1,-1.770967255E0,-5.718109131E-2,1.086934708E1,1.101282437E1
5.474681250E-1,-1.270408173E0,2.029779053E-1,1.119342316E1,1.126711405E1
5.575061251E-1,-5.011578369E-1,4.923262024E-1,1.125135269E1,1.127326402E1
5.675431250E-1,3.403921509E-1,7.158114624E-1,1.112965576E1,1.115784434E1
5.775811251E-1,1.010847931E0,9.163943481E-1,1.090841583E1,1.099341294E1
5.876191250E-1,1.377884674E0,1.011596375E0,1.083761307E1,1.097158833E1
5.976561251E-1,1.524729309E0,8.680448914E-1,1.080902252E1,1.095049174E1
6.076941250E-1,1.375639343E0,4.806504822E-1,1.068043991E1,1.077938798E1
6.177321250E-1,1.016536102E0,-1.347198486E-1,1.054107971E1,1.059083833E1
6.277691250E-1,6.236032104E-1,-5.405259705E-1,1.025337799E1,1.028653535E1
6.378071250E-1,5.292993164E-1,-4.320016479E-1,1.013557297E1,1.015857385E1
6.478441251E-1,4.815486145E-1,-1.317260742E-1,1.016161880E1,1.017387525E1
6.578821250E-1,3.041674805E-1,1.049317932E-1,1.005144791E1,1.005659652E1
6.679201251E-1,1.285826111E-1,2.438429260E-1,9.748627625E0,9.752524464E0
6.779571250E-1,-5.104385376E-2,3.882925415E-1,9.348659363E0,9.356858899E0
6.879951251E-1,-3.785627747E-1,5.137316895E-1,9.154812469E0,9.177026827E0
6.980331250E-1,-7.488926697E-1,5.831872559E-1,9.005123749E0,9.055009737E0
7.080701251E-1,-1.022373962E0,6.336323547E-1,8.918903046E0,8.999642772E0
7.181081250E-1,-1.248703308E0,6.251000977E-1,8.965755615E0,9.073851654E0
7.281461250E-1,-1.517095184E0,5.161267090E-1,9.251511383E0,9.389271934E0
7.381831250E-1,-1.738035736E0,3.906875610E-1,9.146280212E0,9.318146099E0
7.482211250E-1,-3.076103210E0,-1.802252197E-1,8.893156586E0,9.411860929E0
7.582581250E-1,-4.017944641E0,-1.580712891E-1,8.709937592E0,9.593324685E0
7.682961250E-1,-2.347717896E0,1.307980042E0,8.663534088E0,9.070800075E0
7.783341251E-1,-3.423081665E0,8.795709229E-1,7.311545563E0,8.120950167E0
7.883711250E-1,-2.970572662E0,1.339115295E0,7.735464020E0,8.393743820E0
7.984091251E-1,-3.531905365E0,1.765877838E0,9.005423126E0,9.833123905E0
8.084471250E-1,-5.446573792E0,5.412744141E-1,1.060245209E1,1.193189567E1
8.184841251E-1,-3.793860626E0,1.680106201E0,1.027672943E1,1.108274799E1
8.285221250E-1,-1.623972931E0,1.530417480E0,1.079974182E1,1.102786875E1
8.385591251E-1,-1.013991394E0,7.643106079E-1,1.112621292E1,1.119843575E1
8.485971250E-1,-1.097218323E0,6.192622375E-1,9.209598541E0,9.295379447E0
8.586351250E-1,-1.796863403E0,8.637039185E-2,8.559500427E0,8.746497899E0
8.686721250E-1,-2.417622528E0,-6.092330933E-2,9.262887726E0,9.573384948E0
8.787101250E-1,-4.038601685E0,-3.936813354E-2,9.532177734E0,1.035250046E1
8.887481251E-1,-4.466561737E0,5.867797852E-1,9.469158783E0,1.048615527E1
8.987851250E-1,-3.190016327E0,1.205143890E0,8.733887787E0,9.375999778E0
9.088231251E-1,-3.059637451E0,2.633922729E0,8.067323914E0,9.021122181E0
9.188601250E-1,-3.823049927E0,2.949017487E0,6.591393127E0,8.170610641E0
9.288981251E-1,-3.338806915E0,1.928140411E0,7.788154449E0,8.690265059E0
9.389361250E-1,-4.420158234E0,1.001866608E0,8.363557892E0,9.512656628E0
9.489731251E-1,-4.104015656E0,1.103654938E0,9.478888550E0,1.038798955E1
9.590111250E-1,-3.103346558E0,1.247206421E0,1.023182281E1,1.076459390E1
9.690491251E-1,-3.854783936E0,6.182144165E-1,1.039139099E1,1.110056553E1
9.790861250E-1,-4.883744202E0,9.337582397E-1,1.015997223E1,1.131140564E1
9.891241250E-1,-4.905149689E0,1.519340515E0,9.538764038E0,1.083313936E1
9.991621251E-1,-4.409530334E0,1.455423431E0,8.617579651E0,9.789019061E0
1.009199125E0,-4.255800018E0,1.278491364E0,7.571255493E0,8.778968260E0
1.019237125E0,-4.240382080E0,1.024170227E0,7.473209381E0,8.653243513E0
1.029274125E0,-3.946992188E0,9.355545044E-1,8.104147339E0,9.062627304E0
1.039312125E0,-3.913611603E0,1.745819550E0,9.089248810E0,1.004881513E1
1.049350125E0,-3.501817932E0,2.634222107E0,9.656868439E0,1.060457274E1
1.059387125E0,-3.229833527E0,2.790347443E0,1.002884491E1,1.089933914E1
1.069425125E0,-3.962260437E0,2.731819153E0,9.797875214E0,1.091607541E1
1.079463125E0,-4.972808990E0,2.400558014E0,8.908574524E0,1.048113582E1
1.089500125E0,-4.010759583E0,2.784060516E0,8.881031799E0,1.013458984E1
1.099538125E0,-4.471950531E0,2.637515259E0,6.269712067E0,8.140277495E0
1.109576125E0,-4.456233215E0,2.515219574E0,5.400619354E0,7.439827510E0
1.119613125E0,-4.561913452E0,2.041155396E0,5.484744415E0,7.420228500E0
1.129651125E0,-5.008883972E0,1.885179749E0,5.852978668E0,7.930963411E0
1.139688125E0,-5.219346313E0,1.612895966E0,6.248306580E0,8.299659297E0
1.149726125E0,-5.655688934E0,1.825154572E0,5.585784302E0,8.155917655E0
1.159764125E0,-5.730982361E0,1.747466125E0,4.582869873E0,7.543241541E0
1.169801125E0,-5.154680786E0,1.341360626E0,4.140988770E0,6.746685877E0
1.179839125E0,-5.267845459E0,8.412506104E-2,4.919968872E0,7.208562028E0
1.189877125E0,-5.184169464E0,-2.613565063E-1,4.743036804E0,7.031380973E0
1.199914125E0,-5.028942261E0,-7.343728638E-1,4.314178619E0,6.666460900E0
1.209952125E0,-4.783752136E0,-1.067579956E0,2.991080017E0,5.742000621E0
1.219989125E0,-4.517755280E0,-1.264720001E0,4.297862549E0,6.362487873E0
1.230027125E0,-4.832700348E0,-1.235830078E0,5.342689819E0,7.309350391E0
1.240065125E0,-5.072801056E0,-7.177574158E-1,4.996459808E0,7.156332642E0
1.250102125E0,-6.098617859E0,-7.789801025E-1,3.726351013E0,7.189272680E0
1.260140125E0,-5.664969635E0,-8.334667969E-1,4.880301361E0,7.523555625E0
1.270178125E0,-5.133125610E0,-9.891430664E-1,6.459816742E0,8.310030979E0
1.280215125E0,-4.960983582E0,-1.413211212E0,6.734944611E0,8.483395720E0
1.290253125E0,-4.356839905E0,-1.878144379E0,5.510341187E0,7.271405659E0
1.300290125E0,-4.304598541E0,-2.300266571E0,7.343279572E0,8.817286984E0
1.310328125E0,-4.541406097E0,-2.400408325E0,8.210576019E0,9.685034230E0
1.320366125E0,-4.959187317E0,-2.320474548E0,7.187004547E0,9.034997251E0
1.330403125E0,-5.313051453E0,-2.408641205E0,7.409292297E0,9.430147429E0
1.340441125E0,-6.014941864E0,-2.807262268E0,6.593788147E0,9.356189887E0
1.350479125E0,-6.063441010E0,-3.239712982E0,5.434149628E0,8.763049655E0
1.360516125E0,-5.903573456E0,-4.023782501E0,4.882995758E0,8.653707456E0
1.370554083E0,-5.285808105E0,-4.616998901E0,4.204007721E0,8.181083492E0
1.380591083E0,-3.677253113E0,-4.050576782E0,4.109404449E0,6.842263343E0
1.390629083E0,-2.465223541E0,-3.080893250E0,4.469405823E0,5.961947562E0
1.400667083E0,-3.724405060E0,-2.697690125E0,4.523593140E0,6.450706934E0
1.410704083E0,-2.959795074E0,-1.565594330E0,4.980592804E0,6.001481248E0
1.420742083E0,-3.686384125E0,-1.844614105E0,4.683460693E0,6.239137214E0
1.430780083E0,-4.564607849E0,-2.794089661E0,3.736529846E0,6.527192133E0
1.440817083E0,-5.857020264E0,-3.705843658E0,3.896098022E0,7.950946069E0
1.450855083E0,-7.105873260E0,-4.899611206E0,4.346212006E0,9.663807922E0
1.460893083E0,-7.415279846E0,-5.838907928E0,5.637726288E0,1.099377909E1
1.470930083E0,-7.673343201E0,-6.120921478E0,8.020321655E0,1.267562366E1
1.480968083E0,-7.903863831E0,-5.240901489E0,9.729766846E0,1.358699653E1
1.491005083E0,-8.589737549E0,-5.635930023E0,9.531728668E0,1.401431946E1
1.501043083E0,-9.364975433E0,-4.994064789E0,9.235794067E0,1.406923381E1
1.511081083E0,-9.871072998E0,-5.873036957E0,9.022487640E0,1.460602370E1
1.521118083E0,-1.041713745E1,-7.033573608E0,7.590715027E0,1.468355764E1
1.531156083E0,-1.049198181E1,-7.999664612E0,7.180867310E0,1.502135718E1
1.541193083E0,-9.457932129E0,-7.644153900E0,7.140002289E0,1.410195737E1
1.551231083E0,-8.082891541E0,-6.652017059E0,6.889423370E0,1.253182433E1
1.561269083E0,-6.944808197E0,-5.582940216E0,7.382348328E0,1.157145839E1
1.571306083E0,-6.736740875E0,-5.381159821E0,7.646099854E0,1.152403582E1
1.581344083E0,-7.704927521E0,-6.446195068E0,8.003406830E0,1.284421503E1
1.591382083E0,-8.718769226E0,-7.260202332E0,8.371940460E0,1.410024332E1
1.601419083E0,-9.313033447E0,-7.346423035E0,8.349337463E0,1.450565267E1
1.611457083E0,-9.474397888E0,-7.593409424E0,8.410410461E0,1.477020941E1
1.621494083E0,-9.178762665E0,-7.458539886E0,8.068820801E0,1.431731017E1
1.631532083E0,-8.389603729E0,-6.782845001E0,7.429799652E0,1.309940304E1
1.641570083E0,-7.486681366E0,-6.264323273E0,6.738986206E0,1.186195932E1
1.651607083E0,-6.719077606E0,-5.976022797E0,5.705684967E0,1.064958653E1
1.661645083E0,-6.299799500E0,-6.032156067E0,4.687352600E0,9.901800591E0
1.671683083E0,-5.995182953E0,-5.939798126E0,3.985911255E0,9.333322503E0
1.681720083E0,-4.853357391E0,-5.340294800E0,4.002826080E0,8.252056904E0
1.691758083E0,-5.098098450E0,-6.237828369E0,4.560566254E0,9.257422704E0
1.701796083E0,-6.035449219E0,-7.479196930E0,5.266647949E0,1.095913384E1
1.711833083E0,-6.505771179E0,-8.191116486E0,6.276148682E0,1.219874953E1
1.721871083E0,-6.752009125E0,-8.566535797E0,7.489974518E0,1.323158649E1
1.731908083E0,-6.376889191E0,-8.249644775E0,8.206384735E0,1.326899036E1
1.741946083E0,-5.520370331E0,-7.810757446E0,8.622369690E0,1.287740966E1
1.751984083E0,-4.893324280E0,-7.423961792E0,8.547375641E0,1.233359078E1
1.762021083E0,-4.475393372E0,-7.117249603E0,7.757917328E0,1.143982819E1
1.772059083E0,-4.147126007E0,-6.900350647E0,7.053482208E0,1.070350898E1
1.782097083E0,-4.014950867E0,-6.820267181E0,6.509962463E0,1.024770639E1
1.792134083E0,-3.642974396E0,-6.731950836E0,5.861660614E0,9.641031566E0
1.802172083E0,-3.314856720E0,-6.629563751E0,5.321733398E0,9.124704761E0
1.812209083E0,-3.165467377E0,-6.642436981E0,4.969964905E0,8.879341412E0
1.822247083E0,-2.206112366E0,-6.440357208E0,5.409600677E0,8.695338535E0
1.832285083E0,-1.523681488E0,-6.319259033E0,5.794151001E0,8.707860003E0
1.842322083E0,-7.045848083E-1,-6.104904785E0,6.566245422E0,8.993435447E0
1.852360083E0,-2.338137817E-1,-5.778733063E0,7.683971100E0,9.617267624E0
1.862398083E0,-7.006929016E-1,-5.816304932E0,8.021070099E0,9.932670292E0
1.872435083E0,-1.746418304E0,-6.313271484E0,8.070617065E0,1.039433661E1
1.882473083E0,-2.978805542E0,-6.931036835E0,8.422684937E0,1.130726207E1
1.892510083E0,-4.183350677E0,-7.440128174E0,9.007518768E0,1.240932410E1
1.902548083E0,-4.954097900E0,-7.716154175E0,9.234297180E0,1.301362231E1
1.912586083E0,-5.399421844E0,-7.900271301E0,9.531129913E0,1.350594241E1
1.922623083E0,-5.030588837E0,-7.287146301E0,9.481882324E0,1.297364319E1
1.932661083E0,-3.518732758E0,-6.784940643E0,8.945847015E0,1.176626868E1
1.942699083E0,-3.350332947E0,-6.801556091E0,8.509953461E0,1.139759641E1
1.952736083E0,-2.954705658E0,-6.440357208E0,7.750283203E0,1.050120832E1
1.962774083E0,-2.353855133E0,-5.959557037E0,7.125033417E0,9.582434725E0
1.972811083E0,-2.165247345E0,-5.602848816E0,6.478827209E0,8.834897449E0
1.982849083E0,-2.622546387E0,-5.763464813E0,5.934858398E0,8.678584010E0
1.992887083E0,-4.737947388E0,-6.143823853E0,1.191671906E0,7.849509469E0
2.002924083E0,-4.196074219E0,-5.485343170E0,1.161883850E0,7.003285131E0
2.012962083E0,-4.340074768E0,-5.177583160E0,2.525847473E0,7.212733312E0
2.023000083E0,-3.650159454E0,-4.450694733E0,3.867058411E0,6.934442184E0
2.033037083E0,-2.636168060E0,-3.506757660E0,7.905809784E0,9.041491009E0
2.043075083E0,-1.838027802E0,-5.129233704E0,1.026954437E1,1.162544305E1
2.053112083E0,-2.646047516E0,-7.226372681E0,7.012317810E0,1.041127421E1
2.063150083E0,-2.919079742E0,-8.029452667E0,5.458249512E0,1.013832454E1
2.073188083E0,-3.182980957E0,-7.594606934E0,4.126618652E0,9.210776501E0
2.083225083E0,-3.423830109E0,-6.072422333E0,5.758974152E0,9.042273435E0
2.093263083E0,-3.483406219E0,-5.405409393E0,8.136031036E0,1.037051448E1
2.103301083E0,-3.894900513E0,-6.102060699E0,7.231611786E0,1.023238016E1
2.113338083E0,-4.534819794E0,-6.885232086E0,5.979765015E0,1.018472391E1
2.123376083E0,-4.388723602E0,-7.331304474E0,5.954617310E0,1.041471975E1
2.133413083E0,-3.496878204E0,-7.201674042E0,5.846991119E0,9.913605365E0
2.143451083E0,-2.187550964E0,-6.240822144E0,6.620283051E0,9.357424214E0
2.153489083E0,-1.264869690E0,-5.465434570E0,7.217541046E0,9.141322067E0
2.163526083E0,-1.085991669E0,-5.125940552E0,7.422165527E0,9.085328038E0
2.173564083E0,-1.343755646E0,-5.187312927E0,7.673642578E0,9.359416919E0
2.183602083E0,-1.676663361E0,-5.364095306E0,7.935148773E0,9.723749510E0
2.193639083E0,-1.771865387E0,-5.638923798E0,8.330626373E0,1.021451439E1
2.203677083E0,-1.488055573E0,-6.025420074E0,8.771908722E0,1.074552833E1
2.213714083E0,-9.514215088E-1,-5.993237000E0,9.356892242E0,1.115237755E1
2.223752083E0,-4.924758911E-1,-5.825136566E0,9.523645477E0,1.117472916E1
2.233790083E0,-4.001179504E-1,-5.959407349E0,9.352850647E0,1.109731704E1
2.243827083E0,-6.608757019E-1,-6.089037781E0,9.117989044E0,1.098411863E1
2.253865083E0,-1.037642212E0,-6.036347351E0,8.785380707E0,1.070967342E1
2.263903083E0,-1.406624908E0,-5.929319916E0,8.400830383E0,1.037831294E1
2.273940083E0,-1.572030945E0,-5.823489990E0,8.206384735E0,1.018474680E1
2.283978083E0,-1.546733551E0,-5.918093262E0,8.316855011E0,1.032406363E1
2.294015083E0,-1.495689697E0,-6.159840546E0,8.731193390E0,1.078955334E1
2.304053083E0,-1.224453735E0,-6.460565186E0,8.769064636E0,1.096059688E1
2.314091083E0,-7.927514648E-1,-6.709198151E0,8.749904480E0,1.105452953E1
2.324128083E0,1.407073975E-2,-6.647676086E0,8.771908722E0,1.100627902E1
2.334166083E0,1.496887207E-2,-5.980812836E0,8.378826141E0,1.029441954E1
2.344204083E0,-3.737727356E-1,-5.634133759E0,7.977959747E0,9.773996675E0
2.354241083E0,-1.605112152E0,-6.358178101E0,7.745493164E0,1.014866879E1
2.364279083E0,-2.655926971E0,-6.490802307E0,7.322472839E0,1.013918494E1
2.374315625E0,-2.806064758E0,-6.277795258E0,6.756799164E0,9.640490012E0
2.384353625E0,-2.665956116E0,-6.049070892E0,7.174580383E0,9.755674469E0
2.394391625E0,-2.105371857E0,-6.315067749E0,6.791227570E0,9.509650006E0
2.404428625E0,-1.027613068E0,-5.854625244E0,7.367379456E0,9.466303682E0
2.414466625E0,3.769161987E-1,-5.399272156E0,7.865543518E0,9.547825955E0
2.424504625E0,1.621278534E0,-5.377118225E0,6.181844788E0,8.352074561E0
2.434541625E0,8.237370300E-1,-5.649701385E0,5.445076904E0,7.889647073E0
2.444579625E0,-7.661068726E-1,-5.741011505E0,4.861739960E0,7.561920938E0
2.454616625E0,-6.629713440E-1,-4.885839844E0,3.849694519E0,6.255486382E0
2.464654625E0,-1.437011719E-1,-4.736600189E0,4.210294647E0,6.338975658E0
2.474692625E0,-1.030756531E0,-5.522166595E0,4.461023254E0,7.173389116E0
2.484729625E0,-1.703158264E0,-6.580016785E0,5.957012329E0,9.037884976E0
2.494767625E0,-2.084265747E0,-7.765252075E0,7.648345184E0,1.109686837E1
2.504805625E0,-1.579216003E0,-7.605085144E0,7.880811768E0,1.106519034E1
2.514842625E0,-1.097218323E-1,-6.720424805E0,7.228318634E0,9.870397090E0
2.524880625E0,-3.607498169E-2,-7.187902679E0,6.315666504E0,9.568431936E0
2.534917625E0,-1.614243164E0,-7.770491180E0,5.774691467E0,9.814956736E0
2.544955625E0,-2.408491516E0,-7.661068726E0,5.763315125E0,9.884766392E0
2.554993625E0,-2.598596191E0,-7.334897003E0,5.915398865E0,9.774730684E0
2.565030625E0,-2.864143982E0,-7.677983551E0,6.120921478E0,1.022841297E1
2.575068625E0,-2.568808136E0,-8.561895447E0,6.076763306E0,1.080887974E1
2.585106625E0,-1.183888092E0,-8.949888611E0,6.903793488E0,1.136505441E1
2.595143625E0,-7.384144592E-1,-8.824449463E0,9.553882599E0,1.302662032E1
2.605181625E0,6.885681152E-2,-1.032208511E1,1.102008362E1,1.509941805E1
2.615218625E0,6.965016174E-1,-1.093775482E1,1.037687119E1,1.509301331E1
2.625256625E0,5.641767883E-1,-9.605076141E0,7.551795959E0,1.223132885E1
2.635294625E0,8.279283142E-1,-8.193810883E0,3.944297791E0,9.131346403E0
2.645331625E0,1.105151825E0,-6.729555817E0,2.339784393E0,7.209914913E0
2.655369625E0,1.321601715E0,-5.545518036E0,3.627107391E0,6.756871274E0
2.665406625E0,1.429227905E0,-5.835465088E0,4.629572754E0,7.584740541E0
2.675444625E0,2.330653381E0,-6.571634216E0,6.092630310E0,9.259506766E0
2.685482625E0,3.169658661E0,-7.302414551E0,7.331454163E0,1.082230172E1
2.695519625E0,2.962938538E0,-8.188122711E0,8.653804321E0,1.227650958E1
2.705557625E0,2.130818939E0,-8.503965912E0,9.047785034E0,1.259842211E1
2.715595625E0,1.916764069E0,-7.603887634E0,6.805298309E0,1.038292718E1
2.725632625E0,1.954485626E0,-6.623725891E0,6.360722809E0,9.388959122E0
2.735670625E0,1.563648376E0,-6.577921143E0,5.660029907E0,8.817594987E0
2.745707625E0,1.025367737E0,-6.879094849E0,5.008135529E0,8.570574450E0
2.755745625E0,2.686912537E-1,-7.579638062E0,2.127076721E0,7.877027581E0
2.765783625E0,2.683918762E-1,-7.311096497E0,9.461824036E-1,7.376952441E0
2.775820625E0,-2.993774414E-1,-6.243067474E0,1.833686829E-1,6.252930706E0
2.785858625E0,-1.431323547E0,-4.215234375E0,-1.850002899E0,4.820725947E0
2.795896625E0,-1.572330322E0,-3.188070374E0,1.495540009E0,3.856508170E0
2.805933625E0,1.330283661E0,-7.043453064E0,1.131167725E1,1.339156181E1
2.815971625E0,7.059020691E0,-1.122994720E1,1.545805481E1,2.036892108E1
2.826008625E0,9.590855713E0,-1.242446320E1,8.306526489E0,1.775810185E1
2.836046625E0,5.941444702E0,-1.185025726E1,1.008213409E1,1.665469274E1
2.846084625E0,6.597380676E0,-1.021670425E1,1.395518005E1,1.851090295E1
2.856121625E0,4.223766632E0,-8.069120178E0,6.443650360E0,1.115668118E1
2.866159625E0,1.746867371E0,-7.119494934E0,5.803282013E0,9.349697099E0
2.876197625E0,-8.202941895E-2,-5.565276947E0,5.499264221E0,7.824381336E0
2.886234625E0,3.571572876E-1,-4.551285553E0,5.665119324E0,7.275667561E0
2.896272625E0,1.067579956E0,-5.663023682E0,7.140750732E0,9.176049542E0
2.906309625E0,2.014510803E0,-6.611900482E0,7.794141998E0,1.041749160E1
2.916347625E0,8.843609619E-1,-7.407795410E0,8.891360321E0,1.160662809E1
2.926385625E0,3.068618774E-1,-7.672295380E0,6.427034912E0,1.001324415E1
2.936422625E0,5.316943359E-1,-6.804998932E0,6.564748535E0,9.470302670E0
2.946460625E0,8.132588196E-1,-6.356082458E0,6.372847595E0,9.037386824E0
2.956498625E0,2.150428162E0,-6.696175232E0,7.445666656E0,1.024212165E1
2.966535625E0,2.031126251E0,-7.594157867E0,8.375233612E0,1.148656805E1
2.976573625E0,3.590882721E0,-8.383017426E0,6.426585846E0,1.115663146E1
2.986610625E0,6.062243500E0,-9.282047882E0,6.049819336E0,1.262962878E1
2.996648625E0,7.067403259E0,-9.665251007E0,3.906576233E0,1.259470538E1
3.006686625E0,6.133645020E0,-8.596323853E0,3.393892365E0,1.109219953E1
3.016723625E0,3.118165741E0,-8.163424072E0,4.611460419E0,9.880790321E0
3.026761625E0,7.833210754E-1,-7.592511292E0,4.086053009E0,8.657693042E0
3.036799625E0,6.560856628E-1,-7.682474213E0,2.650388489E0,8.153245830E0
3.046836625E0,1.185384979E0,-8.629255371E0,3.319946136E0,9.321546447E0
3.056874625E0,5.538482666E-1,-9.486522675E0,4.330644379E0,1.044295653E1
3.066911625E0,2.835104370E-1,-8.817863159E0,4.010759583E0,9.691299257E0
3.076949625E0,3.057392120E0,-7.031627655E0,2.829266510E0,8.172893187E0
3.086987625E0,2.866988068E0,-7.022496643E0,-1.269360352E-1,7.586250223E0
3.097024625E0,3.011737061E0,-8.170160065E0,-6.688092041E-1,8.733234301E0
3.107062625E0,5.344336395E0,-7.927215271E0,7.620652771E-1,9.590798556E0
3.117100625E0,5.881718903E0,-9.007518768E0,1.631307678E0,1.088077094E1
3.127137625E0,6.737339630E0,-9.196875000E0,2.113455048E0,1.159486728E1
3.137175625E0,7.666457520E0,-9.323511658E0,3.883524170E0,1.268007100E1
3.147212625E0,3.616479492E0,-8.611741791E0,1.891017609E0,9.529793712E0
3.157250625E0,2.759511566E0,-7.865393829E0,2.193688202E0,8.619257050E0
3.167288625E0,3.806584167E0,-7.805967407E0,2.439776459E0,9.020849148E0
3.177325625E0,4.453838196E0,-7.984096985E0,2.652783508E0,9.519440093E0
3.187363625E0,4.392465820E0,-8.364456024E0,2.703228607E0,9.826765768E0
3.197401625E0,3.969744873E0,-8.499175873E0,1.752854919E0,9.542922259E0
3.207438625E0,3.654051361E0,-8.016878815E0,1.049168243E0,8.872609046E0
3.217476625E0,3.308120728E0,-7.827821960E0,2.229912872E0,8.785839221E0
3.227513625E0,3.340154114E0,-7.576943665E0,1.299747162E0,8.381888062E0
3.237551625E0,2.386038208E0,-8.007598114E0,-1.585203552E-1,8.357029053E0
3.247589625E0,4.630620575E0,-9.203161926E0,3.411405945E-1,1.030811395E1
3.257626625E0,4.646038513E0,-9.841883698E0,7.619155884E-1,1.091003501E1
3.267664625E0,3.982019348E0,-1.039064255E1,1.621727600E0,1.124508475E1
3.277702625E0,3.734883270E0,-1.100481537E1,2.665207672E0,1.192303008E1
3.287739625E0,4.127067719E0,-1.129311584E1,1.457818451E0,1.211166331E1
3.297777625E0,2.893183594E0,-1.116094070E1,1.856738892E0,1.167838122E1
3.307814625E0,1.107097778E0,-1.063433578E1,2.381098480E0,1.095373877E1
3.317852625E0,1.920356598E0,-1.013811768E1,1.515298920E0,1.042906181E1
3.327890625E0,1.429976349E0,-9.784702606E0,1.363065491E0,9.982143306E0
3.337927625E0,1.395997009E0,-9.459129639E0,3.945794678E-1,9.569724872E0
3.347965625E0,1.147962799E0,-9.364825745E0,7.000941467E-1,9.460862098E0
3.358003625E0,1.200802917E0,-9.217382355E0,2.337688751E0,9.584719809E0
3.368040875E0,1.682201843E0,-8.824000397E0,2.840642853E0,9.421360722E0
3.378078875E0,2.074236603E0,-8.901688843E0,2.335742798E0,9.433886588E0
3.388115875E0,4.278103638E-1,-8.745264130E0,2.502346344E0,9.106283744E0
3.398153875E0,4.462220764E-1,-8.614136810E0,2.468666382E0,8.971999824E0
3.408191875E0,1.298849030E0,-8.085735626E0,3.501817932E0,8.906674927E0
3.418228875E0,1.485959930E0,-8.526419220E0,2.719245300E0,9.072055811E0
3.428266875E0,1.361269226E0,-8.558153229E0,1.681902466E0,8.827447904E0
3.438304875E0,1.642534332E0,-9.177415466E0,1.135538635E0,9.392141485E0
3.448341875E0,1.514251099E0,-8.929231567E0,1.650467834E0,9.205877299E0
3.458379875E0,1.940714264E0,-8.957971802E0,1.626966705E0,9.309062859E0
3.468416875E0,2.150727539E0,-1.071516769E1,2.191891937E0,1.114651685E1
3.478454875E0,1.584006042E0,-1.205997116E1,3.023562469E0,1.253371092E1
3.488492875E0,2.355202332E0,-1.152722900E1,2.222129059E0,1.197338065E1
3.498529875E0,2.179916840E0,-1.026101212E1,9.211843872E-1,1.053038403E1
3.508567875E0,2.381547546E0,-9.379644928E0,-7.087760925E-1,9.703188715E0
3.518605875E0,7.086264038E-1,-9.357191620E0,-2.327360229E0,9.668287957E0
3.528642875E0,2.580633545E-1,-9.904453583E0,-2.624941406E0,1.024963974E1
3.538680875E0,1.111588440E0,-9.837842102E0,-3.453917542E0,1.048562409E1
3.548718875E0,1.691931610E0,-1.046384033E1,-3.060834961E0,1.103282818E1
3.558755875E0,2.529440002E0,-1.087264023E1,-1.870061188E0,1.131854678E1
3.568793875E0,2.050885162E0,-1.051473450E1,-2.141746216E0,1.092487292E1
3.578830875E0,3.326831818E0,-1.018092865E1,-1.920206909E0,1.088146648E1
3.588868875E0,6.059399414E-1,-8.256680145E0,2.763253784E-1,8.283494791E0
3.598906875E0,-1.497785339E0,-8.403524780E0,1.959874420E0,8.758064706E0
3.608943875E0,-2.069446564E0,-8.798703003E0,1.730850677E0,9.203022747E0
3.618981875E0,-2.902464294E0,-9.463620300E0,1.391805725E0,9.996075797E0
3.629019875E0,-1.122366028E0,-1.031864227E1,8.351133728E-1,1.041304462E1
3.639056875E0,8.529263306E-1,-1.171089706E1,3.242257690E-1,1.174639160E1
3.649094875E0,3.851490784E-1,-1.320434143E1,2.219883728E-1,1.321182241E1
3.659131875E0,2.409988403E-2,-1.332484085E1,-5.544470215E-1,1.333639292E1
3.669169875E0,2.335144043E-1,-1.160207336E1,-1.041085052E0,1.165102971E1
3.679207875E0,4.421804810E-1,-1.101723953E1,-2.963836670E-1,1.103009219E1
3.689244875E0,-1.709445190E-1,-1.002046234E1,-2.757266235E-1,1.002571258E1
3.699282875E0,1.269360352E-1,-9.234746246E0,-4.354444885E-1,9.245878157E0
3.709320875E0,6.430627441E-1,-8.739126892E0,-1.347198486E-3,8.762754723E0
3.719357875E0,1.679058380E0,-8.786578217E0,1.116677856E0,9.014996574E0
3.729395875E0,8.716374207E-1,-8.821605377E0,-6.481521606E-2,8.864799729E0
3.739432875E0,1.268162842E0,-9.094188538E0,5.599855042E-1,9.199243769E0
3.749470875E0,2.703977051E0,-8.435408478E0,-2.002835083E-1,8.860458316E0
3.759508875E0,2.353406067E0,-8.655001831E0,1.324445801E0,9.066517164E0
3.769545875E0,2.815794525E0,-8.555159454E0,1.297801208E0,9.099656042E0
3.779583875E0,1.945953369E0,-8.550818481E0,1.143621826E0,8.843704094E0
3.789621875E0,1.886826324E0,-8.439899139E0,6.611750793E-1,8.673474710E0
3.799658875E0,2.308349762E0,-7.989785156E0,-3.635939026E-1,8.324502747E0
3.809696875E0,2.358794861E0,-8.416697388E0,6.682104492E-1,8.766482380E0
3.819733875E0,2.178270264E0,-8.982820129E0,-2.978805542E-1,9.247953917E0
3.829771875E0,2.615361328E0,-9.406888275E0,5.334906006E-1,9.778255167E0
3.839809875E0,2.236798553E0,-8.393795013E0,1.017583923E0,8.746115683E0
3.849846875E0,2.630180511E0,-8.290509796E0,8.777746582E-1,8.741904286E0
3.859884875E0,2.630779266E0,-8.693920898E0,6.125262451E-1,9.103869976E0
3.869922875E0,2.742147675E0,-9.020391998E0,1.385369110E0,9.529223119E0
3.879959875E0,2.187550964E0,-1.025831772E1,1.792971497E0,1.064110936E1
3.889997875E0,1.899400177E0,-1.086425766E1,1.422192535E0,1.112036183E1
3.900035875E0,1.403182068E0,-1.139714951E1,1.780697021E0,1.162044830E1
3.910072875E0,1.161883850E0,-1.136137390E1,2.201172638E0,1.163081906E1
3.920110875E0,1.991458740E0,-1.129775620E1,1.968406677E0,1.163958022E1
3.930147875E0,2.543660431E0,-1.180804504E1,-2.293231201E-1,1.208108957E1
3.940185875E0,1.546134796E0,-8.516390076E0,-6.728507996E-1,8.681714170E0
3.950223875E0,-1.067280579E-1,-7.591313782E0,1.181044006E-1,7.592982580E0
3.960260875E0,1.688937836E0,-9.370513916E0,2.746788025E-1,9.525465370E0
3.970298875E0,1.791025543E0,-9.800719299E0,1.405128021E0,1.006162293E1
3.980336875E0,1.374441833E0,-9.674831085E0,1.245260468E0,9.850995915E0
3.990373875E0,2.100432129E0,-9.012159119E0,1.361867981E0,9.353368992E0
4.000411875E0,2.037562866E0,-8.809031525E0,1.540296936E0,9.171870774E0
4.010448875E0,1.668430481E0,-4.837041321E0,1.653012543E0,5.377088383E0
4.020486875E0,1.882036285E0,5.251080322E0,-3.009791107E0,6.338355279E0
4.030524875E0,2.298919373E0,1.642684021E0,-1.158590698E-1,2.827872769E0
4.040561875E0,1.006656647E0,-4.668940887E0,2.143841858E0,5.235305581E0
4.050599875E0,2.182162170E0,-6.302643585E0,-8.696914673E-2,6.670285716E0
4.060637875E0,4.000880127E0,-1.329595093E1,-3.525768127E0,1.432551548E1
4.070674875E0,2.636766815E0,-1.540057434E1,8.931925964E-1,1.565017643E1
4.080712875E0,7.758366394E-1,-8.518785095E0,1.669029236E0,8.715347416E0
4.090750875E0,3.245251465E-1,-1.006057892E1,1.884281616E0,1.024065828E1
4.100787875E0,1.523531799E0,-1.250604355E1,2.080673218E-1,1.260022089E1
4.110825875E0,3.901187439E0,-9.665550385E0,-6.358776855E-1,1.044253169E1
4.120862875E0,3.624862061E0,-3.064876556E0,-4.778063965E-1,4.770890086E0
4.130900875E0,3.649111633E0,1.401385803E0,-1.958826599E0,4.372287677E0
4.140938875E0,4.079017639E0,3.507206726E-1,6.792874146E-1,4.150038709E0
4.150975875E0,2.680475922E0,-3.215313721E0,2.408491516E0,4.829495302E0
4.161013875E0,1.651066589E0,-6.785539398E0,2.148033142E-1,6.986823761E0
4.171051875E0,1.235381012E0,-9.027726746E0,-2.805166626E-1,9.116178258E0
4.181088875E0,-6.140231323E-1,-1.080108902E1,-1.446591797E0,1.091481453E1
4.191126875E0,1.376088409E0,-1.521705597E1,-2.419119415E0,1.546947156E1
4.201163875E0,3.705843658E0,-2.353944946E1,-3.032693481E-1,2.383130149E1
4.211201875E0,4.166585541E0,-2.741833328E1,9.409432983E-1,2.774906862E1
4.241314875E0,3.604504395E0,-1.699745361E1,6.658154297E-1,1.738819115E1
4.251352875E0,3.589685211E0,-8.175099792E0,-1.517693939E0,9.056571726E0
4.261389875E0,3.777843933E0,-9.885443115E0,2.780467987E0,1.094189621E1
4.271427875E0,2.419718170E0,-9.238638153E0,4.095932465E0,1.039154145E1
4.281464875E0,1.415905609E0,-7.513475647E0,1.212029572E0,7.741196334E0
4.291502875E0,1.479373627E0,-8.848699036E0,-1.617386627E0,9.116137365E0
4.301540875E0,1.022074585E0,-9.673483887E0,-2.171384583E0,9.966736576E0
4.311577875E0,1.316063232E0,-9.066196747E0,-2.587369537E0,9.519581241E0
4.321615875E0,2.141297150E0,-8.124954071E0,-2.704426117E0,8.826888056E0
4.331653875E0,2.361788635E0,-7.559579773E0,-2.214944000E0,8.223823249E0
4.341690875E0,2.677631836E0,-7.510182495E0,-9.752220154E-1,8.032659045E0
4.351728875E0,2.809058533E0,-8.235873413E0,7.878117371E-1,8.737337584E0
4.361766875E0,3.004552002E0,-9.232949982E0,1.910776520E0,9.895744793E0
4.371803750E0,3.328328705E0,-9.583670654E0,1.691033478E0,1.028514022E1
4.381841750E0,3.537443848E0,-9.976304169E0,8.467890930E-1,1.061871958E1
4.391878750E0,3.363804932E0,-1.019574783E1,2.224374390E-1,1.073861890E1
4.401916750E0,3.017574921E0,-1.030187714E1,-3.323089600E-2,1.073478156E1
4.411954750E0,2.547252960E0,-1.005998016E1,2.151026917E-1,1.037969015E1
4.421991750E0,2.184257813E0,-9.455237732E0,2.239343262E-1,9.706835187E0
4.432029750E0,2.349514160E0,-9.193581848E0,-8.152047729E-1,9.524007707E0
4.442067750E0,2.720293121E0,-9.308243408E0,-2.221829681E0,9.948865118E0
4.452104750E0,2.479893036E0,-9.154962158E0,-2.897973633E0,9.917734256E0
4.462142750E0,1.530866547E0,-5.753136292E0,-5.305267639E0,7.974208067E0
4.472180750E0,1.695973206E0,-4.929249573E0,-2.314936066E0,5.703749245E0
4.482217750E0,2.569855957E0,-7.460336151E0,3.665128326E0,8.700226478E0
4.492255750E0,2.882406006E0,-8.834777985E0,-6.376739502E-2,9.293311181E0
4.502292750E0,4.120631104E0,-6.872957611E0,3.269351349E0,8.654813993E0
4.512330750E0,3.676953735E0,-7.251370697E0,3.114573212E0,8.706487928E0
4.522368750E0,3.379671936E0,-1.029124924E1,1.618284760E0,1.095220703E1
4.532405750E0,1.944007416E0,-1.031100815E1,7.806266785E-1,1.052166488E1
4.542443750E0,1.281485138E0,-1.024499542E1,-5.315446472E-1,1.033850449E1
4.552481750E0,8.187973022E-1,-8.962312775E0,-8.919950867E-1,9.043734545E0
4.562518750E0,5.760021973E-1,-7.013665009E0,-9.213340759E-1,7.097332729E0
4.572556750E0,9.978250122E-1,-6.791676636E0,-1.040635986E0,6.943014442E0
4.582594750E0,7.946974182E-1,-5.918093262E0,-3.749702454E-1,5.982973719E0
4.592631750E0,-5.553451538E-1,-4.766537933E0,9.750723267E-1,4.896841651E0
4.602669750E0,-1.506616974E0,-4.883145447E0,2.251018982E0,5.584092640E0
4.612706750E0,-2.375260620E0,-6.585255890E0,3.015928345E0,7.622550881E0
4.622744750E0,-2.742896118E0,-8.516090698E0,3.795806580E0,9.718818214E0
4.632782750E0,-7.060517578E0,-1.348994751E0,4.328099670E0,8.390658023E0
4.642819750E0,-1.031864227E1,1.295211594E1,5.832022247E0,1.755688381E1
4.652857750E0,-1.049168243E0,-2.024869263E1,8.260572052E0,2.189400278E1
4.662895750E0,9.704319763E-1,-2.137330399E1,1.479762817E1,2.601402816E1
4.672932750E0,1.421384216E1,-1.845362549E1,-3.859813477E1,4.508198765E1
4.682970750E0,1.294792465E1,-4.428450989E1,-3.597409149E1,5.850557091E1
4.698026750E0,2.403402100E0,-1.431787582E1,1.691856766E1,2.229385210E1
4.708064750E0,6.447691956E0,-1.245050903E1,6.333778839E0,1.538520917E1
4.718102750E0,8.440497894E0,-1.208017914E1,4.383185120E0,1.537481852E1
4.728139750E0,8.032446442E0,-1.236803055E1,-1.692979431E0,1.484434420E1
4.738177750E0,4.328997803E0,-1.158066788E1,-1.964963837E0,1.251851322E1
4.748214750E0,5.641767883E-1,-9.156159668E0,-1.211430817E0,9.253168103E0
4.758252750E0,-3.348087616E0,-4.778513031E0,-7.112010498E0,9.199161418E0
4.768290750E0,-2.412682800E0,-6.173761597E0,-5.030738525E0,8.321340076E0
4.778327750E0,4.080514526E-1,-7.197782135E0,1.712438965E-1,7.211372832E0
4.788365750E0,-1.074914703E0,-7.878117371E0,1.907333679E0,8.176680053E0
4.798403750E0,2.414329376E0,-8.100105743E0,1.024918671E0,8.514173928E0
4.808440750E0,4.168381805E0,-8.848699036E0,1.478924561E-1,9.782471757E0
4.818478750E0,3.443289642E0,-1.056263489E1,-1.222657471E0,1.117677908E1
4.828516750E0,2.966082001E0,-1.185908890E1,-2.291434937E0,1.243729496E1
4.838553750E0,2.214794312E0,-1.219918167E1,-1.865720215E0,1.253819202E1
4.848591750E0,2.004781036E0,-1.166209854E1,-1.688189392E0,1.195297757E1
4.858628750E0,2.114353180E0,-1.184037781E1,-1.708696747E0,1.214844355E1
4.868666750E0,2.127675476E0,-1.179756683E1,-1.081800385E0,1.203660576E1
4.878704750E0,1.337618408E0,-1.027523254E1,2.890489197E-1,1.036596238E1
4.888741750E0,5.810916138E-1,-8.244555359E0,2.433788910E0,8.615897457E0
4.898779750E0,4.390370178E-1,-6.588998108E0,3.632795563E0,7.536899440E0
4.908817750E0,9.246272278E-1,-6.136938171E0,3.085832977E0,6.931039662E0
4.918854750E0,1.731000366E0,-6.499933319E0,1.412313080E0,6.873145107E0
4.928892750E0,2.159110107E0,-7.603139191E0,-7.330256653E-1,7.937682825E0
4.938930750E0,2.570005646E0,-9.562863922E0,-2.493664398E0,1.021134945E1
4.948967750E0,2.631976776E0,-1.122860001E1,-2.679877167E0,1.184020699E1
4.959005750E0,2.766696625E0,-1.199291061E1,-2.259551239E0,1.251359609E1
4.969042750E0,3.661086731E0,-1.206880280E1,-5.032235413E0,1.357876836E1
4.979080750E0,3.973487091E0,-1.131541946E1,-6.222410431E0,1.351094774E1
4.989118750E0,2.679128723E0,-9.920470276E0,-1.923350372E0,1.045431671E1
4.999155750E0,6.502478027E-1,-8.598868561E0,2.870580597E0,9.088652028E0
5.009193750E0,-3.764671326E-1,-6.337221680E0,7.162904663E0,9.571275220E0
5.019231750E0,-1.047671356E0,-4.736749878E0,6.087690582E0,7.784239931E0
5.029268750E0,6.795867920E-2,-6.824608154E0,-3.896397400E-1,6.836059828E0
5.039306750E0,1.390458527E0,-1.001911514E1,-4.982838135E0,1.127584671E1
5.049343750E0,2.114802246E0,-1.205982147E1,-5.119054871E0,1.327088562E1
5.059381750E0,2.219584351E0,-1.260184433E1,-3.592229919E0,1.329049100E1
5.069419750E0,2.425556030E0,-1.286275177E1,-1.475032654E0,1.317229769E1
5.079456750E0,2.815644836E0,-1.074854828E1,-1.175804901E0,1.117325660E1
5.089494750E0,3.178939362E0,-9.208999786E0,-1.661993866E0,9.882993278E0
5.099532750E0,4.368665314E0,-7.135212250E0,-1.780697021E0,8.553792864E0
5.109569750E0,4.865631866E0,-5.774242401E0,-5.963598633E-1,7.574423665E0
5.119607750E0,5.105283508E0,-5.210215302E0,1.063688049E0,7.371681996E0
5.129645750E0,6.095773773E0,-6.468947754E0,-1.838177490E-1,8.890417982E0
5.139682750E0,6.344706116E0,-8.003257141E0,-1.954635315E0,1.039846238E1
5.149720750E0,6.053411865E0,-9.756112061E0,-3.859573975E0,1.211287864E1
5.159757750E0,4.686604156E0,-1.142214752E1,-3.722309418E0,1.289516576E1
5.169795750E0,2.577939148E0,-1.214200058E1,-1.171463928E0,1.246780959E1
5.179833750E0,1.660646667E0,-1.174083481E1,7.535330200E-1,1.188161443E1
5.189870750E0,1.749561768E0,-1.121243362E1,1.643133087E0,1.146645196E1
5.199908750E0,1.093176727E0,-9.509275360E0,3.131488037E0,1.007112559E1
5.209946750E0,1.100212097E0,-9.176966400E0,2.871478729E0,9.678459023E0
5.219983750E0,1.837279358E0,-9.535470886E0,2.205363922E0,9.958133886E0
5.230021750E0,2.384092255E0,-9.312883759E0,1.062789917E-2,9.613210324E0
5.240059750E0,2.692750397E0,-1.151181107E1,-4.944817200E0,1.281498794E1
5.250096750E0,2.199076996E0,-1.136302048E1,-6.167324982E0,1.311449852E1
5.260134750E0,8.008346558E-1,-9.715995483E0,-4.284091187E0,1.064872488E1
5.270172750E0,4.953199768E-1,-9.470505981E0,-5.050497437E-1,9.496888999E0
5.280209750E0,1.058448944E0,-8.207582245E0,4.233646088E0,9.295616153E0
5.290247750E0,4.486170959E-1,-7.017257538E0,3.879632263E0,8.030859677E0
5.300284750E0,1.516197052E0,-7.393425293E0,2.443818054E0,7.933085008E0
5.310322750E0,2.811603241E0,-8.326135712E0,-3.148702240E0,9.335093704E0
5.320360750E0,3.349584503E0,-9.696386261E0,-1.304387512E0,1.034123057E1
5.330397750E0,2.766996002E0,-9.050329742E0,-4.402345276E-1,9.474098467E0
5.340435750E0,2.460882568E0,-8.992250519E0,-1.187181244E0,9.398186618E0
5.350473750E0,2.924767914E0,-9.721833344E0,-1.493144989E0,1.026147128E1
5.360510750E0,3.337908783E0,-9.956245880E0,-1.171912994E0,1.056607056E1
5.370549083E0,3.319646759E0,-9.595046997E0,-1.841171265E-2,1.015309413E1
5.380586083E0,2.847229156E0,-9.841883698E0,-7.926017761E-1,1.027606959E1
5.390624083E0,2.619851990E0,-9.750723267E0,-1.686842194E0,1.023648696E1
5.400662083E0,3.313659210E0,-9.587263184E0,-1.371747437E0,1.023609514E1
5.410699083E0,3.577710114E0,-9.288484497E0,1.433419189E0,1.005637333E1
5.420737083E0,3.455564117E0,-8.716823273E0,1.915267181E0,9.570380333E0
5.430775083E0,2.104174347E0,-8.400980072E0,9.981243896E-1,8.717813267E0
5.440812083E0,1.582509155E0,-8.746611328E0,9.562115479E-1,8.939904109E0
5.450850083E0,2.457888794E0,-9.270372162E0,2.746788025E-1,9.594606078E0
5.460888083E0,3.701053619E0,-9.529782715E0,-3.397933960E-1,1.022888147E1
5.470925083E0,4.908891907E0,-9.866282959E0,-1.104403381E0,1.107521855E1
5.480963083E0,4.875511322E0,-1.029035110E1,-1.523980865E0,1.148844873E1
5.491000083E0,3.749852142E0,-9.571545868E0,-8.931925964E-1,1.031860816E1
5.501038083E0,3.073259125E0,-9.520202637E0,1.847158813E-1,1.000566339E1
5.511076083E0,2.826422424E0,-9.488019562E0,7.226971436E-1,9.926402676E0
5.521113083E0,2.128872986E0,-9.491761780E0,3.381468201E-1,9.733446725E0
5.531151083E0,1.937870178E0,-9.853709106E0,-9.729766846E-2,1.004292740E1
5.541189083E0,2.115999756E0,-1.003243744E1,-2.709365845E-1,1.025673742E1
5.551226083E0,2.615960083E0,-1.012374756E1,-6.759942627E-1,1.047809525E1
5.561264083E0,3.002306671E0,-1.037821838E1,-1.186732178E0,1.086874397E1
5.571302083E0,3.021017761E0,-1.066502197E1,-1.537602539E0,1.119077582E1
5.581339083E0,2.831362152E0,-1.074525513E1,-1.774110718E0,1.125275914E1
5.591377083E0,2.523452454E0,-1.068627777E1,-2.010469208E0,1.116272061E1
5.601414083E0,2.214794312E0,-1.073148376E1,-1.347647552E0,1.104020885E1
5.611452083E0,2.036664734E0,-9.397607574E0,-4.553530884E-1,9.626545476E0
5.621490083E0,2.472408600E0,-9.597442017E0,7.453001404E-1,9.938771043E0
5.631527083E0,2.314636688E0,-9.076375580E0,9.744735718E-1,9.417416599E0
5.641565083E0,2.124831390E0,-8.262817383E0,1.080902252E0,8.599849372E0
5.651603083E0,2.420017548E0,-7.865094452E0,1.442550201E0,8.354468670E0
5.661640083E0,2.476001129E0,-6.990612946E0,1.187929688E0,7.510687578E0
5.671678083E0,2.313439178E0,-6.080056458E0,8.205935669E-1,6.556863668E0
5.681716083E0,2.439776459E0,-5.832471313E0,1.128503265E0,6.422129741E0
5.691753083E0,2.910547485E0,-6.774013367E0,1.464554443E0,7.516878573E0
5.701791083E0,3.419189758E0,-8.142767029E0,3.827540588E-1,8.839797179E0
5.711828083E0,3.577261047E0,-9.434131622E0,-3.493734741E-1,1.009562766E1
5.721866083E0,3.506158905E0,-1.022942780E1,-8.011340332E-1,1.084325408E1
5.731904083E0,3.549119568E0,-1.020892044E1,-5.647755432E-1,1.082299763E1
5.741941083E0,3.805087280E0,-9.584419098E0,3.805087280E-1,1.031913589E1
5.751979083E0,3.549269257E0,-9.014853516E0,1.003064117E0,9.740176271E0
5.762017083E0,3.021466827E0,-8.870104523E0,1.918710022E0,9.565012503E0
5.772054083E0,2.552042999E0,-8.344098358E0,2.081571350E0,8.970498323E0
5.782092083E0,2.521955566E0,-8.280031586E0,1.498683472E0,8.784374485E0
5.792130083E0,2.368374939E0,-9.122030640E0,2.017654266E0,9.638027370E0
5.802167083E0,2.809208221E0,-9.980645142E0,3.190016327E0,1.084809349E1
5.812205083E0,4.229454803E0,-9.584718475E0,3.072660370E0,1.091770846E1
5.822243083E0,6.953639832E0,-8.250093842E0,1.942809906E0,1.096319596E1
5.832280083E0,7.802524567E0,-7.857160950E0,6.933581543E-1,1.109482372E1
5.842318083E0,6.819518738E0,-7.950267334E0,-2.844085693E-2,1.047441623E1
5.852355083E0,5.535189514E0,-7.914042664E0,1.217418365E0,9.734089671E0
5.862393083E0,4.777914276E0,-8.720116425E0,1.400787048E0,1.004146900E1
5.872431083E0,4.356540527E0,-9.061107330E0,1.419198761E0,1.015368094E1
5.882468083E0,4.208797760E0,-8.580756226E0,1.158441010E0,9.627322658E0
5.892506083E0,3.910168762E0,-8.149652710E0,5.652246094E-1,9.056806164E0
5.902544083E0,3.271746368E0,-8.281827850E0,-1.100212097E-1,8.905341179E0
5.912581083E0,2.575095062E0,-8.572523346E0,-1.014590149E0,9.008255340E0
5.922619083E0,1.729204102E0,-8.631051636E0,-2.139351196E0,9.058809122E0
5.932657083E0,6.420149231E-1,-8.790170746E0,-2.890788574E0,9.275556236E0
5.942694083E0,-3.894900513E-1,-9.436676331E0,-3.103047180E0,9.941401535E0
5.952732083E0,-2.860551453E-1,-1.058493851E1,-2.715652771E0,1.093149215E1
5.962769083E0,1.541644135E0,-1.091994186E1,-2.487826538E-1,1.103103303E1
5.972807083E0,3.422931976E0,-1.055544983E1,1.367705841E0,1.118054577E1
5.982845083E0,4.621639252E0,-1.049377808E1,1.271455994E0,1.153670352E1
5.992882083E0,4.999453583E0,-1.062191162E1,4.450245667E-1,1.174808876E1
6.002920083E0,4.851710815E0,-1.040980270E1,-3.772155762E-2,1.148496901E1
6.012958083E0,4.586163025E0,-9.688003693E0,2.674937439E-1,1.072202685E1
6.022995083E0,5.534740448E0,-9.302704926E0,-4.827461243E-1,1.083543790E1
6.033033083E0,6.944209442E0,-7.739355927E0,1.869612122E-1,1.039974180E1
6.043071083E0,6.957681427E0,-6.389612732E0,-4.345463562E-1,9.456495770E0
6.053108083E0,3.008144531E0,-6.370901642E0,4.643344116E-1,7.060660571E0
6.063146083E0,1.007405090E-1,-7.477400665E0,4.620890808E-1,7.492342469E0
6.073183083E0,-7.111711121E-1,-9.016949158E0,-4.113446045E-1,9.054299578E0
6.083221083E0,-1.027164001E0,-9.929451599E0,-5.867797852E-1,9.999669268E0
6.093259083E0,-5.545967102E-1,-9.741891632E0,-5.213658142E-1,9.771583925E0
6.103296083E0,1.659898224E0,-9.582473145E0,-2.222877502E-1,9.727716357E0
6.113334083E0,4.844076691E0,-9.705966339E0,9.388476562E-1,1.088817232E1
6.123372083E0,7.012617188E0,-1.032373169E1,2.405348053E0,1.270991483E1
6.133409083E0,7.868088226E0,-1.113279922E1,2.950214996E0,1.394811096E1
6.143447083E0,8.103997650E0,-1.163650177E1,2.232457581E0,1.435502763E1
6.153485083E0,7.151228943E0,-1.141151962E1,1.717079315E0,1.357612673E1
6.163522083E0,4.518803101E0,-1.149789001E1,1.742077332E0,1.247621295E1
6.173560083E0,2.665806427E0,-1.007270370E1,1.280886383E0,1.049793093E1
6.183597083E0,2.248923340E0,-9.116192780E0,4.559518433E-1,9.400559508E0
6.193635083E0,2.374212799E0,-8.859626312E0,-5.547463989E-1,9.188993872E0
6.203673083E0,2.137854309E0,-8.021519165E0,-2.056124268E0,8.552358608E0
6.213710083E0,1.506766663E0,-7.360493774E0,-3.652853851E0,8.354074194E0
6.223748083E0,1.278191986E0,-6.796017609E0,-2.914289703E0,7.504179806E0
6.233786083E0,2.274969177E0,-7.169790344E0,-2.280807037E0,7.860245485E0
6.243823083E0,3.010389862E0,-7.466922455E0,-7.619155884E-1,8.086896403E0
6.253861083E0,3.355272675E0,-7.909851379E0,2.930905151E-1,8.597063779E0
6.263899083E0,4.107009430E0,-9.185498657E0,5.510041809E-1,1.007692997E1
6.273936083E0,4.901108093E0,-1.055170761E1,1.427731018E0,1.172168119E1
6.283974083E0,5.505102081E0,-1.162347885E1,2.837649078E0,1.317056042E1
6.294012083E0,4.946314087E0,-1.196297287E1,3.958967285E0,1.353706633E1
6.304049083E0,3.552861786E0,-1.128368546E1,4.305197296E0,1.258884856E1
6.314087083E0,2.462080078E0,-9.813592529E0,4.327949982E0,1.100452578E1
6.324124083E0,1.940863953E0,-7.779472504E0,4.252955933E0,9.076055282E0
6.334162083E0,1.970202942E0,-6.624324646E0,3.796405334E0,7.885180411E0
6.344200083E0,3.480262756E0,-6.526128845E0,2.531236267E0,7.817272133E0
6.354237083E0,5.753585358E0,-7.466922455E0,1.107546844E0,9.491329487E0
6.364275083E0,6.915618896E0,-8.671916656E0,7.057823181E-1,1.111422745E1
6.374312583E0,7.135661316E0,-9.429341583E0,8.894503784E-1,1.185838383E1
6.384349583E0,6.449039154E0,-1.003857468E1,9.178912354E-1,1.196685472E1
6.394387583E0,5.118755493E0,-1.003647903E1,3.538641357E-1,1.127199135E1
6.404425583E0,3.749852142E0,-9.698930969E0,5.469625854E-1,1.041296409E1
6.414462583E0,2.848875732E0,-8.968749390E0,4.586462402E-1,9.421513410E0
6.424500583E0,2.808609467E0,-8.564290466E0,4.029620361E-1,9.022069426E0
6.434538583E0,3.280278625E0,-8.852740631E0,9.786648560E-1,9.491524084E0
6.444575583E0,3.765569458E0,-9.120533752E0,1.889670410E0,1.004661652E1
6.454613583E0,4.615502014E0,-9.714498596E0,2.941233673E0,1.115012096E1
6.464650583E0,4.538562012E0,-9.940678253E0,3.662882996E0,1.152529137E1
6.474688583E0,3.713028717E0,-9.693542175E0,4.095782776E0,1.115915672E1
6.484726583E0,3.070714417E0,-9.231602783E0,4.250111847E0,1.061674280E1
6.494763583E0,2.794538727E0,-8.594677277E0,3.778891754E0,9.795812732E0
6.504801583E0,3.332969055E0,-8.384813690E0,3.274740143E0,9.598838802E0
6.514839583E0,3.184477844E0,-8.485404510E0,3.103196869E0,9.579813133E0
6.524876583E0,2.965034180E0,-8.737330627E0,3.230432281E0,9.775892128E0
6.534914583E0,3.459306335E0,-9.394913177E0,3.373085632E0,1.056451138E1
6.544952583E0,4.196373596E0,-9.427096252E0,3.461701355E0,1.088407421E1
6.554989583E0,3.714525604E0,-8.951834564E0,2.204166412E0,9.939385902E0
6.565027583E0,2.113305359E0,-8.680748291E0,2.276765442E-1,8.937185633E0
6.575065583E0,1.395248566E0,-9.309440918E0,-1.177451477E0,9.486769774E0
6.585102583E0,1.779798889E0,-1.001701950E1,-8.346643066E-1,1.020808642E1
6.595140583E0,2.443069611E0,-9.956096191E0,-5.646258545E-1,1.026699775E1
6.605177583E0,2.750530243E0,-9.448651428E0,-4.029620361E-1,9.849101930E0
6.615215583E0,2.352957001E0,-8.773704987E0,7.102729797E-1,9.111464951E0
6.625253583E0,1.843566284E0,-8.603658600E0,1.579964447E0,8.939684871E0
6.635290583E0,2.177072754E0,-8.815617828E0,1.807341614E0,9.258576952E0
6.645328583E0,3.093467102E0,-9.202114105E0,2.482288055E0,1.002048885E1
6.655366583E0,3.498973846E0,-9.517059174E0,3.234473877E0,1.064326334E1
6.665403583E0,2.662213898E0,-9.289981384E0,3.509901123E0,1.028156325E1
6.675441583E0,1.270108795E0,-8.959169312E0,3.891457672E0,9.850042331E0
6.685479583E0,-1.004411316E-1,-9.239685974E0,3.691772919E0,9.950430775E0
6.695516583E0,-9.397457886E-1,-1.037836807E1,3.048710175E0,1.085763693E1
6.705554583E0,-1.229692841E0,-1.176149185E1,1.984573059E0,1.199097016E1
6.715591583E0,-6.809339905E-1,-1.221415054E1,2.850073242E-1,1.223643632E1
6.725629583E0,1.578317871E0,-1.254660919E1,-1.216220856E0,1.270384519E1
6.735667583E0,2.441572723E0,-1.226100311E1,-3.085982666E0,1.287698582E1
6.745704583E0,2.418520660E0,-1.155102951E1,-3.081492004E0,1.219717664E1
6.755742583E0,1.707050171E0,-9.883796539E0,-2.801574097E0,1.041404205E1
6.765780583E0,1.648671570E0,-9.186696167E0,-2.931204529E0,9.782916968E0
6.775817583E0,2.694995728E0,-9.553583221E0,-2.855462036E0,1.032896983E1
6.785855583E0,3.696712646E0,-9.632469177E0,-1.765877838E0,1.046749595E1
6.795893583E0,3.792513428E0,-9.677824860E0,-1.083746338E0,1.045073960E1
6.805930583E0,5.124743042E0,-1.021670425E1,-1.007255402E0,1.147425817E1
6.815968583E0,6.746021576E0,-1.097397949E1,-1.222956848E0,1.293957714E1
6.826006583E0,7.738607483E0,-1.108430008E1,-2.420017548E0,1.373332585E1
6.836043583E0,6.226002960E0,-9.448950806E0,-8.578660583E-1,1.134820331E1
6.846081583E0,3.870052185E0,-7.707771606E0,5.179229736E-1,8.640329349E0
6.856119583E0,3.013683014E0,-6.722071381E0,1.479373627E0,7.513792337E0
6.866156583E0,2.383194122E0,-6.340365143E0,2.313588867E0,7.157690816E0
6.876194583E0,2.303559723E0,-6.682553558E0,2.328707428E0,7.442162840E0
6.886231583E0,4.217629395E0,-7.102580109E0,1.433568878E0,8.383922807E0
6.896269583E0,6.027815094E0,-7.579338684E0,7.267387390E-1,9.711286160E0
6.906307583E0,7.231761475E0,-7.878566437E0,3.347039795E-1,1.069963597E1
6.916344583E0,7.045399017E0,-8.276139679E0,1.138981476E0,1.092837655E1
6.926382583E0,6.048621826E0,-8.727600861E0,1.813927917E0,1.077251954E1
6.936420583E0,5.506149902E0,-8.288713531E0,2.180216217E0,1.018694270E1
6.946457583E0,5.213508453E0,-7.373067627E0,2.216889954E0,9.298247022E0
6.956495583E0,5.058131561E0,-6.700815582E0,1.973496094E0,8.624402077E0
6.966533583E0,4.547393646E0,-6.847959595E0,7.605683899E-1,8.255410581E0
6.976570583E0,3.099903717E0,-7.979905701E0,-6.993457031E-1,8.589376139E0
6.986608583E0,1.616638184E0,-9.606722717E0,-1.122964783E0,9.806308698E0
6.996646583E0,5.230123901E-1,-1.122276215E1,-1.704505463E0,1.136350611E1
7.006683583E0,2.935395813E-1,-1.139206009E1,-2.035766602E0,1.157624914E1
7.016721583E0,1.040037231E0,-1.044033920E1,-2.377955017E0,1.075811462E1
7.026758583E0,1.677262115E0,-9.745035095E0,-2.448159027E0,1.018687390E1
7.036796583E0,2.017504578E0,-9.031319275E0,-3.211421814E0,9.795319425E0
7.046834583E0,1.896107025E0,-8.623267822E0,-2.251767426E0,9.111883797E0
7.056871583E0,2.741099854E0,-9.665400696E0,-2.152823181E0,1.027464095E1
7.066909583E0,3.224893799E0,-1.121063736E1,-1.814227295E0,1.180549663E1
7.076947583E0,3.533402252E0,-1.194530960E1,-1.756447449E0,1.258016139E1
7.086984583E0,5.828878784E0,-1.049826874E1,-2.022294617E0,1.217699265E1
7.097022583E0,8.041427765E0,-8.141270142E0,-1.874851227E0,1.159568485E1
7.107060583E0,7.895331573E0,-7.148085480E0,-1.769470367E0,1.079640737E1
7.117097583E0,5.587730255E0,-7.750432892E0,-2.956950989E0,1.000177477E1
7.127135583E0,2.849923553E0,-9.089997253E0,-3.203787689E0,1.005059052E1
7.137173583E0,3.042572937E0,-1.075139236E1,-4.161196747E0,1.192330685E1
7.147210583E0,4.009562073E0,-1.150642227E1,-2.874622192E0,1.251949657E1
7.157248583E0,4.552483063E0,-1.147259262E1,-1.049617310E0,1.238737987E1
7.167286583E0,4.283941498E0,-1.047895889E1,1.294358368E0,1.139456440E1
7.177323583E0,3.274291077E0,-8.883426819E0,3.083737335E0,9.957192880E0
7.187361583E0,2.205513611E0,-7.651488647E0,4.347409515E0,9.072460433E0
7.197398583E0,1.965712280E0,-7.108867035E0,5.371579742E0,9.124356647E0
7.207436583E0,2.257006531E0,-7.436835022E0,5.556744690E0,9.553952333E0
7.217474583E0,2.566712494E0,-8.814869385E0,4.829107819E0,1.037353448E1
7.227511583E0,4.862338715E0,-9.872420197E0,2.842588806E0,1.136606042E1
7.237549583E0,5.163512421E0,-1.085617447E1,-1.231339417E0,1.208447688E1
7.247587583E0,2.871927795E0,-1.163260986E1,-4.728516998E0,1.288116666E1
7.257624583E0,1.535357208E0,-1.049931656E1,-4.860542450E0,1.167123999E1
7.267662583E0,2.404449921E0,-8.889114990E0,-3.192710724E0,9.746340159E0
7.277700583E0,2.322121124E0,-7.509434052E0,-9.375004578E-1,7.915980887E0
7.287737583E0,1.887724457E0,-6.412964172E0,-1.971400452E0,6.969650841E0
7.297775583E0,3.255130920E0,-6.420448608E0,-1.560355225E0,7.365646344E0
7.307813583E0,4.001478882E0,-7.549999695E0,9.707313538E-1,8.599805114E0
7.317850583E0,4.796176300E0,-9.177265778E0,2.186353455E0,1.058327245E1
7.327888583E0,6.253545685E0,-1.002001328E1,3.278632050E0,1.225793326E1
7.337926583E0,5.726940765E0,-1.040171951E1,4.349954224E0,1.264577879E1
7.347963583E0,3.930376740E0,-1.026684998E1,5.269192657E0,1.219099918E1
7.358001583E0,3.318598938E0,-9.115594025E0,5.325026550E0,1.106630296E1
7.368039583E0,3.915407867E0,-6.656358032E0,3.106040955E0,8.323761856E0
7.378076708E0,3.090024261E0,-7.038663025E0,-1.818268890E0,7.899185330E0
7.388114708E0,1.875899048E0,-8.830437012E0,-1.222358093E0,9.109872357E0
7.398151708E0,3.108735352E0,-8.614436188E0,1.143921204E0,9.229371703E0
7.408189708E0,3.480412445E0,-9.414971466E0,5.288502502E-1,1.005159893E1
7.418227708E0,5.265300751E0,-8.662635956E0,-2.848576355E-1,1.014129171E1
7.428264708E0,5.724545746E0,-8.338110809E0,-8.831634521E-1,1.015256094E1
7.438302708E0,4.643493805E0,-8.679251404E0,-1.137634277E-1,9.844002324E0
7.448340708E0,4.530778198E0,-8.859326935E0,1.163680115E0,1.001847175E1
7.458377708E0,5.286107483E0,-8.695417786E0,1.053658905E0,1.023051416E1
7.468415708E0,5.687273254E0,-8.321345673E0,3.728746033E-1,1.008607487E1
7.478453708E0,5.475613403E0,-8.139922943E0,-2.456391907E-1,9.813308630E0
7.488490708E0,4.830155640E0,-8.492439880E0,-2.992277527E-1,9.774532003E0
7.498528708E0,4.751868439E0,-8.669521637E0,-9.349557495E-1,9.930508614E0
7.508566708E0,4.370910645E0,-8.643775177E0,-1.343456268E0,9.778782333E0
7.518603708E0,4.270469513E0,-8.491242371E0,-6.129753113E-1,9.524381638E0
7.528641708E0,4.195325775E0,-8.431815948E0,4.731660461E-1,9.429748918E0
7.538679708E0,4.177961884E0,-8.632847900E0,1.381477203E0,9.689680471E0
7.548716708E0,3.811374207E0,-8.857231293E0,1.556613007E0,9.767300731E0
7.558754708E0,2.590962067E0,-8.443341980E0,1.802252197E0,9.013945929E0
7.568792708E0,9.342073059E-1,-9.081764374E0,4.401447144E0,1.013528117E1
7.578829708E0,5.578898621E-1,-9.681417389E0,1.020547760E1,1.407809848E1
7.588867708E0,7.082821198E0,-9.103618927E0,2.590662689E0,1.182174974E1
7.598904708E0,1.004501129E1,-8.080945587E0,-1.123713226E0,1.294089119E1
7.608942708E0,6.302643585E0,-8.325087891E0,1.055904236E0,1.049501493E1
7.618980708E0,3.435505829E0,-8.446784821E0,2.317929840E0,9.408701975E0
7.629017708E0,2.221081238E0,-8.433163147E0,1.138682098E0,8.794773417E0
7.639055708E0,9.466314697E-1,-9.008716278E0,8.831634521E-2,9.058746044E0
7.649093708E0,5.589376831E-1,-9.442364502E0,-5.295986938E-1,9.473707484E0
7.659130708E0,8.265811157E-1,-9.385033722E0,-7.599696350E-1,9.451965306E0
7.669168708E0,1.522184601E0,-8.959618378E0,-1.935475159E-1,9.090064250E0
7.679206708E0,1.876048737E0,-9.220076752E0,3.600013733E-1,9.415889504E0
7.689243708E0,2.233056335E0,-9.190887451E0,5.240602112E-1,9.472781632E0
7.699281708E0,2.450404358E0,-8.431516571E0,-6.825805664E-1,8.806864904E0
7.709319708E0,3.166814575E0,-7.597900085E0,-1.970202942E0,8.463952971E0
7.719356708E0,3.719016266E0,-6.895859985E0,-2.039957886E0,8.096011061E0
7.729394708E0,2.158810730E0,-7.224875793E0,-8.128097534E-1,7.584191038E0
7.739432708E0,-3.140469360E-1,-9.229357452E0,4.077520752E-1,9.243696567E0
7.749469708E0,-4.465214539E-1,-1.010398865E1,1.504371643E0,1.022512113E1
7.759507708E0,7.872129822E-1,-1.028750702E1,1.983674927E0,1.050654421E1
7.769545708E0,3.761976929E0,-1.083761307E1,1.263672180E0,1.154136884E1
7.779582708E0,6.747967529E0,-1.392733795E1,1.044228516E0,1.551116441E1
7.789620708E0,1.095751373E1,-1.285481827E1,3.383264465E0,1.722672164E1
7.799657708E0,1.060080551E1,-1.142364441E1,2.647544403E0,1.580778987E1
7.809695708E0,8.943751373E0,-1.177331726E1,-5.777984619E-2,1.478529765E1
7.819733708E0,7.778724060E0,-1.123773102E1,-1.266516266E0,1.372585917E1
7.829770708E0,6.403683472E0,-9.386231232E0,-1.370998993E0,1.144500489E1
7.839808708E0,5.105582886E0,-7.553891602E0,-9.163943481E-1,9.163407310E0
7.849846708E0,3.659440155E0,-7.225923615E0,-6.557862854E-1,8.126224830E0
7.859883708E0,3.178340607E0,-5.973627777E0,-7.042854309E-1,6.803094575E0
7.869921708E0,1.926643524E0,-4.916675720E0,1.646575928E-3,5.280687277E0
7.879959708E0,9.247769165E-1,-6.292315063E0,1.892813873E0,6.635599865E0
7.889996708E0,1.365161133E0,-7.306456146E0,3.581751709E0,8.250873387E0
7.900034708E0,2.081571350E0,-9.653724976E0,3.960913239E0,1.064030915E1
7.910072708E0,2.901566162E0,-1.163246017E1,3.306174774E0,1.243639850E1
7.920109708E0,3.147355042E0,-1.230216751E1,3.151396637E0,1.308359545E1
7.930147708E0,3.427572327E0,-1.170011948E1,2.914589081E0,1.253538501E1
7.940185708E0,3.347788239E0,-1.053479279E1,2.135608978E0,1.125834672E1
7.950222708E0,3.457809448E0,-8.903036041E0,1.601669312E0,9.684309037E0
7.960260708E0,3.417543182E0,-7.365134125E0,1.459315338E0,8.249509278E0
7.970298708E0,2.366728363E0,-6.472390594E0,2.067949677E0,7.195113551E0
7.980335708E0,1.460961914E0,-5.889652405E0,2.007625122E0,6.391633109E0
7.990373708E0,1.347946930E0,-6.118376770E0,1.385818176E0,6.416540130E0
8.000411708E0,2.321821747E0,-7.072193298E0,1.252295837E0,7.548179856E0
8.010448708E0,3.884272614E0,-8.289012909E0,1.105750580E0,9.220520218E0
8.020486708E0,5.043911133E0,-1.017838394E1,1.009949799E0,1.140440870E1
8.030524708E0,5.757327576E0,-1.039049286E1,2.072440338E0,1.205836521E1
8.040561708E0,5.584137726E0,-9.669741669E0,3.009641418E0,1.156479310E1
8.050599708E0,4.989723816E0,-1.043225601E1,2.018402710E0,1.173896327E1
8.060636708E0,3.914509735E0,-1.053449341E1,1.287173309E0,1.131175287E1
8.070674708E0,2.784060516E0,-9.405541077E0,1.356329498E0,9.902263661E0
8.080712708E0,2.246528320E0,-8.407266998E0,1.688788147E0,8.864594366E0
8.090749708E0,2.564616852E0,-8.061635742E0,2.447560272E0,8.806689601E0
8.100787708E0,3.280727692E0,-7.410340118E0,3.256927185E0,8.734064892E0
8.110825708E0,2.877466278E0,-7.485034790E0,3.648063812E0,8.809876706E0
8.120862708E0,2.281256104E0,-8.405021667E0,3.660637665E0,9.447157602E0
8.130900708E0,2.557431793E0,-9.569749603E0,2.893033905E0,1.031940938E1
8.140938708E0,3.179687805E0,-1.029454239E1,1.528321838E0,1.088226930E1
8.150975708E0,4.166585541E0,-1.046533722E1,3.832031250E-1,1.127078359E1
8.161013708E0,5.574108582E0,-1.004620880E1,-3.426374817E-1,1.149410276E1
8.171051708E0,5.632487183E0,-9.601932678E0,-1.474284210E0,1.122922691E1
8.181088708E0,4.544848938E0,-9.363478546E0,-1.542093201E0,1.052180753E1
8.191126708E0,2.507884827E0,-9.729467468E0,-6.664141846E-1,1.006956461E1
8.201164708E0,1.861229553E0,-9.180558929E0,5.520520020E-1,9.383581359E0
8.211201708E0,1.798210602E0,-8.128097534E0,1.725012817E0,8.501482230E0
8.221239708E0,2.288590851E0,-8.714577942E0,2.989732819E0,9.493156436E0
8.231277708E0,3.216062164E0,-1.055604858E1,4.101321259E0,1.177259757E1
8.241314708E0,3.674858093E0,-1.064810715E1,4.175866241E0,1.201351850E1
8.251352708E0,5.128185883E0,-1.039648041E1,3.953578491E0,1.224809692E1
8.261390708E0,6.033203888E0,-9.361981659E0,2.788102112E0,1.148127881E1
8.271427708E0,5.295388184E0,-8.611741791E0,5.644761658E-1,1.012530819E1
8.281465708E0,3.771107941E0,-8.090076599E0,-6.271957397E-2,8.926058941E0
8.291503708E0,3.282973022E0,-8.031099243E0,7.174580383E-1,8.705814893E0
8.301540708E0,4.064348145E0,-8.366102600E0,1.246607666E0,9.384275637E0
8.311578708E0,4.561763763E0,-7.336393890E0,1.714534607E0,8.807496402E0
8.321615708E0,3.719016266E0,-7.329807587E0,3.141217804E0,8.799114190E0
8.331653708E0,4.108805695E0,-7.959847412E0,3.586392059E0,9.649023944E0
8.341691708E0,4.234394531E0,-7.969726868E0,3.069367218E0,9.532452912E0
8.351728708E0,3.772305450E0,-9.372010803E0,1.844314728E0,1.026968216E1
8.361766708E0,4.339176636E0,-9.446256409E0,1.084045715E0,1.045157257E1
8.371805083E0,4.257446594E0,-8.778045959E0,2.636467438E0,1.010598352E1
8.381842083E0,3.817062378E0,-8.617729340E0,2.957100677E0,9.878242181E0
8.391880083E0,3.406166840E0,-8.923244019E0,1.591340790E0,9.682903586E0
8.401918083E0,3.941304016E0,-8.625812531E0,9.770182800E-1,9.533786440E0
8.411955083E0,4.917124786E0,-8.243657227E0,1.569186859E0,9.726168209E0
8.421993083E0,4.119882660E0,-9.266031189E0,1.508712616E0,1.025226711E1
8.432031083E0,3.368445282E0,-9.916129303E0,2.153122559E0,1.069167811E1
8.442068083E0,6.046226807E0,-8.626261597E0,1.127455444E0,1.059435715E1
8.452106083E0,6.788233795E0,-9.020990753E0,-3.159928894E-1,1.129416857E1
8.462144083E0,7.059769135E0,-7.144792328E0,3.924838257E-1,1.005198693E1
8.472181083E0,5.600304108E0,-6.751709747E0,2.334096222E0,9.077279096E0
8.482219083E0,3.645369415E0,-8.505911865E0,2.552192688E0,9.599632407E0
8.492257083E0,3.972439270E0,-8.459807739E0,1.509011993E0,9.467087088E0
8.502294083E0,5.674250336E0,-8.312813416E0,1.227297821E0,1.013934138E1
8.512332083E0,5.354664917E0,-7.884404297E0,7.725434875E-1,9.562065202E0
8.522370083E0,4.414320374E0,-7.598498840E0,8.110134888E-1,8.825029851E0
8.532407083E0,2.926713867E0,-8.692573700E0,9.611512756E-1,9.222272137E0
8.542445083E0,1.292262726E0,-9.555828552E0,1.336420898E0,9.734979357E0
8.552483083E0,1.051712952E0,-9.930499420E0,1.480571136E0,1.009519736E1
8.562520083E0,1.719923401E0,-8.834179230E0,1.637594604E0,9.147818060E0
8.572558083E0,2.480491791E0,-8.324040070E0,1.985321503E0,8.909769025E0
8.582596083E0,2.801274719E0,-8.133336639E0,1.930834808E0,8.816259297E0
8.592633083E0,2.792592773E0,-7.664511566E0,1.849254456E0,8.364392027E0
8.602671083E0,2.435734863E0,-7.302264862E0,1.534010010E0,7.849144103E0
8.612708083E0,2.565365295E0,-6.947502594E0,1.880240021E0,7.640955040E0
8.622746083E0,2.825524292E0,-7.209906921E0,2.397414551E0,8.106413626E0
8.632784083E0,2.462529144E0,-8.457712097E0,2.846331024E0,9.257350809E0
8.642821083E0,1.528172150E0,-1.075887680E1,2.945424957E0,1.125896391E1
8.652859083E0,2.182910614E0,-1.137349869E1,2.464475098E0,1.184040576E1
8.662897083E0,4.338278503E0,-9.954599304E0,1.391057281E0,1.094759097E1
8.672934083E0,5.572012939E0,-9.382638702E0,7.530839539E-1,1.093838986E1
8.682972083E0,6.154451752E0,-8.720415802E0,3.629951477E-1,1.067963921E1
8.693010083E0,5.040917358E0,-9.314081268E0,-2.826123047E-1,1.059447155E1
8.703047083E0,4.035458221E0,-8.988657990E0,5.770500183E-1,9.869847123E0
8.713085083E0,3.657344513E0,-8.647068329E0,2.283351746E0,9.662383493E0
8.723123083E0,4.191134491E0,-8.922046509E0,1.600771179E0,9.986540472E0
8.733160083E0,4.484973450E0,-8.556207275E0,5.035528564E-1,9.673532719E0
8.743198083E0,4.515659637E0,-7.997568970E0,9.401948547E-1,9.232348442E0
8.753236083E0,4.340523834E0,-8.238418121E0,1.700912933E0,9.465980409E0
8.763273083E0,4.047433319E0,-9.232650604E0,1.426832886E0,1.018132633E1
8.773311083E0,4.040248260E0,-1.004111938E1,9.196875000E-1,1.086248174E1
8.783349083E0,4.543651428E0,-1.037567368E1,1.090931396E0,1.137934549E1
8.793386083E0,5.200635223E0,-1.017359390E1,2.293680267E0,1.165373712E1
8.803424083E0,5.083728333E0,-9.510173492E0,2.703977051E0,1.111751706E1
8.813462083E0,3.934118958E0,-9.271270294E0,2.216889954E0,1.031253344E1
8.823499083E0,3.721560974E0,-8.528365173E0,1.916764069E0,9.500369104E0
8.833537083E0,3.410657501E0,-8.223000183E0,1.518143005E0,9.030784838E0
8.843575083E0,2.845133514E0,-9.185348969E0,7.638615417E-1,9.646186026E0
8.853612083E0,3.451073456E0,-9.263336792E0,7.819738770E-1,9.916188767E0
8.863650083E0,4.089046783E0,-9.298663330E0,1.133442993E0,1.022106337E1
8.873688083E0,5.001399536E0,-8.542136536E0,8.403524780E-1,9.934197814E0
8.883725083E0,5.355712738E0,-7.748037872E0,3.074606323E-1,9.423920726E0
8.893763083E0,5.676795044E0,-8.005053406E0,3.882925415E-1,9.821285715E0
8.903801083E0,5.291047211E0,-8.696615295E0,1.051263885E0,1.023383867E1
8.913838083E0,4.409380646E0,-9.568252716E0,1.501976624E0,1.064189981E1
8.923876083E0,3.706741791E0,-9.584419098E0,1.281934204E0,1.035588622E1
8.933914083E0,4.040397949E0,-8.592731323E0,1.256337433E0,9.578007670E0
8.943951083E0,4.744234314E0,-7.778873749E0,1.885628815E0,9.304527503E0
8.953989083E0,5.102589111E0,-7.616910553E0,2.387385406E0,9.473824523E0
8.964026083E0,5.303471375E0,-8.864566040E0,2.343077545E0,1.059232515E1
8.974064083E0,5.369184723E0,-9.240284729E0,1.874701538E0,1.085013882E1
8.984102083E0,5.535039825E0,-9.270072784E0,1.207838287E0,1.086415154E1
8.994139083E0,4.923561401E0,-9.334289246E0,8.858578491E-1,1.059033317E1
9.004177083E0,4.969515839E0,-9.346863098E0,8.494834900E-1,1.061986627E1
9.014215083E0,5.031486969E0,-9.045839081E0,1.092877350E0,1.040852760E1
9.024252083E0,4.077071686E0,-8.568781128E0,8.672964478E-1,9.528836586E0
9.034290083E0,3.805835724E0,-8.817863159E0,3.821553040E-1,9.611718833E0
9.044328083E0,3.755240936E0,-8.699758759E0,2.814147949E-1,9.479811772E0
9.054365083E0,2.139500885E0,-9.118737488E0,6.240522766E-1,9.387133676E0
9.064403083E0,1.376687164E0,-9.252259827E0,7.765850830E-1,9.386301926E0
9.074441083E0,2.156266022E0,-8.936416626E0,4.294569397E-1,9.202904896E0
9.084478083E0,2.828218689E0,-8.314609680E0,1.389111328E-1,8.783555737E0
9.094516083E0,3.080593872E0,-8.436156921E0,3.267704773E-1,8.986967294E0
9.104554083E0,3.402873688E0,-9.365424500E0,2.805166626E-1,9.968420887E0
9.114591083E0,4.106710052E0,-9.683363342E0,-1.119971008E0,1.057766175E1
9.124629083E0,4.850962372E0,-1.012359787E1,-2.189197540E0,1.143729232E1
9.134667083E0,4.473597107E0,-1.128907425E1,-1.783241730E0,1.227339478E1
9.144704083E0,4.141886902E0,-1.001163071E1,-1.940265198E0,1.100693443E1
9.154742083E0,4.713099060E0,-9.023236084E0,-1.715732117E0,1.032355699E1
9.164780083E0,5.792504425E0,-7.080126801E0,-7.051835632E-1,9.174888930E0
9.174817083E0,5.665269012E0,-5.507497101E0,6.960525513E-2,7.901432920E0
9.184855083E0,4.101920013E0,-7.141948242E0,1.636846161E0,8.397168442E0
9.194893083E0,2.916834412E0,-8.573720856E0,2.650837555E0,9.436289103E0
9.204930083E0,4.018842773E0,-9.108109589E0,1.905238037E0,1.013600954E1
9.214968083E0,4.575535126E0,-1.049572403E1,1.244811401E0,1.151717413E1
9.225006083E0,4.632416840E0,-1.192839478E1,-8.547225952E-2,1.279660866E1
9.235043083E0,4.395908661E0,-1.425081528E1,-1.060544586E0,1.495107032E1
9.245081083E0,3.702251129E0,-1.208601700E1,-1.625469818E0,1.274443496E1
9.255119083E0,3.775149536E0,-1.093027039E1,-2.551593933E0,1.184200981E1
9.265156083E0,4.477039948E0,-1.026625122E1,-2.048789520E0,1.138583942E1
9.275194083E0,4.265529785E0,-9.599687347E0,-1.209185486E0,1.057406597E1
9.285232083E0,3.868854675E0,-9.650731201E0,-6.010002136E-1,1.041469397E1
9.295269083E0,3.773652649E0,-9.652527466E0,-5.022056580E-1,1.037612410E1
9.305307083E0,3.412304077E0,-9.441915436E0,-2.368075562E-1,1.004239334E1
9.315344083E0,2.713257751E0,-9.355844421E0,-1.081800385E0,9.801218523E0
9.325382083E0,1.957629089E0,-9.758207703E0,-2.110461273E0,1.017393611E1
9.335420083E0,1.297052765E0,-1.069615723E1,-2.297721863E0,1.101678951E1
9.345457083E0,6.041436768E-1,-1.211281128E1,-1.265767822E0,1.219374245E1
9.355495083E0,7.520361328E-1,-1.173694290E1,-7.978408813E-2,1.176128193E1
9.365533083E0,2.194286957E0,-9.487570496E0,1.028810577E0,9.792208145E0
9.375569583E0,2.530787201E0,-9.618697815E0,2.107467499E0,1.016688993E1
9.385607583E0,2.485132141E0,-8.586294708E0,2.458337860E0,9.270585937E0
9.395645583E0,3.089126129E0,-6.206393738E0,3.099304962E0,7.593926173E0
9.405682583E0,2.772684174E0,-4.929848328E0,2.568059692E0,6.211772102E0
9.415720583E0,1.321152649E0,-5.189857635E0,2.936443634E0,6.107599186E0
9.425758583E0,4.794529724E-1,-6.580465851E0,2.449805603E0,7.038036193E0
9.435795583E0,5.867797852E-2,-4.725373535E0,1.924398193E0,5.102539227E0
9.445833583E0,-1.787133636E0,-5.164410553E0,1.647773438E0,5.707901567E0
9.455871583E0,-4.612508240E0,-8.012986908E0,-4.917274475E-1,9.258778933E0
9.465908583E0,-7.409441986E0,-1.085841980E1,-2.540217590E0,1.338871975E1
9.475946583E0,-6.778803406E0,-1.089195007E1,-4.182302856E0,1.349364329E1
9.485984583E0,-3.735781403E0,-1.001357666E1,-4.800517273E0,1.171634526E1
9.496021583E0,-2.998265076E-1,-9.052724762E0,-3.755839691E0,9.805511376E0
9.506059583E0,1.669178925E0,-8.735384674E0,-3.356769562E0,9.505840603E0
9.516097583E0,2.938539276E0,-8.421188049E0,-4.011058960E0,9.779571321E0
9.526134583E0,4.083059235E0,-8.878038025E0,-5.299878845E0,1.111663833E1
9.536172583E0,5.806874542E0,-1.004096970E1,-6.202950897E0,1.315361031E1
9.546210583E0,5.779032440E0,-1.048090485E1,-5.539231110E0,1.318823960E1
9.556247583E0,4.560266876E0,-1.198422867E1,-4.877606964E0,1.371892199E1
9.566285583E0,3.079246674E0,-1.294313461E1,-3.592828674E0,1.378096192E1
9.576323583E0,4.769232330E0,-1.086814957E1,-3.408112793E0,1.234817739E1
9.586360583E0,1.383872223E0,-8.811426544E0,-1.947300568E0,9.129530085E0
9.596398583E0,-1.676513672E-1,-1.015129028E1,-3.725752258E0,1.081471365E1
9.606436583E0,2.142794037E0,-7.036567383E0,-3.888164520E0,8.320016235E0
9.616473583E0,-2.535277863E0,-9.391620026E0,8.753796387E-1,9.767110630E0
9.626511583E0,-3.027454376E0,-1.148501678E1,2.048639832E0,1.205271819E1
9.636549583E0,-2.986140289E0,-8.829987946E0,2.386636963E0,9.621941433E0
9.646586583E0,-2.018402710E0,-7.106621704E0,2.123334503E0,7.686778972E0
9.656624583E0,-1.628014526E0,-6.001769257E0,2.880010986E-1,6.225320083E0
9.666662583E0,-3.354374542E0,-8.467441864E0,-7.255412292E-1,9.136509747E0
9.676699583E0,1.901046753E-1,-9.874665527E0,-7.972421265E-1,9.908620190E0
9.686737583E0,2.579436035E0,-8.563542023E0,-4.763095093E-1,8.956261105E0
9.696775583E0,1.287622375E0,-9.893825684E0,8.318202209E-1,1.001187709E1
9.706812583E0,3.331621857E0,-1.016865417E1,4.436773682E-1,1.070971902E1
9.716850583E0,5.768853607E0,-9.352551270E0,-1.368903351E0,1.107356237E1
9.726888583E0,7.220235443E0,-1.068433182E1,-4.957840118E0,1.381545963E1
9.736925583E0,5.918692017E0,-1.284628601E1,-5.069358215E0,1.502519125E1
9.746963583E0,3.950884094E0,-1.248239273E1,2.613565063E-1,1.309533965E1
9.757000583E0,4.070784760E0,-1.037507492E1,2.137854309E0,1.134829896E1
9.767038583E0,4.943320312E0,-8.626411285E0,1.103205872E0,1.000342194E1
9.777076583E0,3.556454315E0,-8.850046234E0,-1.636846161E0,9.677342145E0
9.787113583E0,2.588716736E0,-8.691376190E0,-2.880460052E0,9.515173384E0
9.797151583E0,2.482288055E0,-7.934100952E0,-2.485431519E0,8.676928128E0
9.807189583E0,1.787732391E0,-7.599696350E0,-1.661395111E0,7.981954988E0
9.817226583E0,1.536255341E0,-7.714208221E0,-6.469546509E-1,7.892251851E0
9.827264583E0,8.411009216E-1,-8.777447205E0,9.376501465E-1,8.867368154E0
9.837302583E0,1.466799774E0,-8.969797211E0,1.755549316E0,9.256928053E0
9.847339583E0,1.203946381E0,-1.096110626E1,-1.377136230E-2,1.102703619E1
9.857377583E0,1.440005493E0,-1.235126541E1,-1.415606232E0,1.251524327E1
9.867415583E0,2.062860260E0,-1.189142166E1,-1.435365143E0,1.215407646E1
9.877452583E0,2.428400116E0,-1.116318604E1,-2.370320892E0,1.166757347E1
9.887490583E0,2.205214233E0,-1.035561539E1,-2.207010498E0,1.081538881E1
9.897528583E0,2.477647705E0,-9.512418823E0,-1.130598907E0,9.894599735E0
9.907565583E0,2.646047516E0,-9.253906403E0,2.230361938E-2,9.624803822E0
9.917603583E0,2.566862183E0,-9.680219879E0,8.794212341E-1,1.005329897E1
9.927641583E0,3.052901459E0,-9.854307861E0,5.496569824E-1,1.033100738E1
9.937678583E0,3.267255707E0,-9.513616333E0,2.390528870E-1,1.006185877E1
9.947716583E0,2.592009888E0,-9.552834778E0,1.496887207E-3,9.898240742E0
9.957754583E0,2.462828522E0,-9.695488129E0,-7.084767151E-1,1.002845719E1
9.967791583E0,2.531385956E0,-8.845854950E0,-6.716532898E-1,9.225409627E0
9.977829583E0,2.053729248E0,-7.552245026E0,-4.983137512E-1,7.842354579E0
9.987867583E0,2.319726105E0,-7.502398682E0,-7.204518127E-1,7.885820566E0
9.997904583E0,3.095413055E0,-6.938820648E0,-1.103205872E-1,7.598748884E0
1.000794258E1,3.311264191E0,-7.664810944E0,6.824308777E-1,8.377321126E0
1.001798058E1,3.425776062E0,-9.320667572E0,1.339714050E0,1.002026044E1
1.002801758E1,3.572021942E0,-1.076306808E1,1.096918945E0,1.139325268E1
1.003805558E1,3.100502472E0,-1.137110367E1,1.999841309E-1,1.178792212E1
1.004809358E1,2.964285736E0,-1.126826752E1,-1.673519897E-1,1.165284727E1
1.005813058E1,2.674937439E0,-1.038824753E1,-2.508782959E-1,1.073004739E1
1.006816858E1,2.396965485E0,-9.099727020E0,-3.010240173E-1,9.414939768E0
1.007820658E1,2.360740814E0,-8.161029053E0,2.963836670E-2,8.495667768E0
1.008824358E1,2.426005096E0,-7.693700867E0,7.722441101E-1,8.104004857E0
1.009828158E1,2.394121399E0,-8.157885590E0,1.234931946E0,8.591156585E0
1.010831958E1,2.435136108E0,-8.853638763E0,8.693920898E-1,9.223483606E0
1.011835658E1,2.282004547E0,-9.421707458E0,-4.873864746E-1,9.706372225E0
1.012839458E1,2.070644073E0,-1.024499542E1,-1.531914368E0,1.056381842E1
1.013843258E1,2.580633545E0,-1.066412384E1,-2.067051544E0,1.116494106E1
1.014846958E1,3.358565826E0,-1.015188904E1,-1.688339081E0,1.082549326E1
1.015850758E1,2.272274780E0,-1.018661682E1,-1.184037781E0,1.050392024E1
1.016854558E1,1.981728973E0,-9.677974548E0,-8.830137634E-1,9.918172936E0
1.017858258E1,2.242337036E0,-8.292006683E0,-8.143066406E-2,8.590231730E0
1.018862058E1,1.297202454E0,-8.171357574E0,2.424957275E-1,8.277235226E0
1.019865858E1,9.912387085E-1,-7.746391296E0,-8.262817383E-2,7.809991019E0
1.020869558E1,1.004411316E0,-7.258106689E0,-6.987469482E-1,7.360516429E0
1.021873358E1,8.547225952E-1,-7.170538788E0,-1.342558136E0,7.345041836E0
1.022877158E1,6.110293579E-1,-7.491172028E0,-1.805695038E0,7.729912664E0
1.023880858E1,1.149459686E0,-8.176147614E0,-1.972897339E0,8.488991181E0
1.024884658E1,2.043101349E0,-9.352551270E0,-1.437460785E0,9.680432422E0
1.025888458E1,3.420986023E0,-1.082324295E1,-8.749305725E-1,1.138469309E1
1.026892158E1,4.482428741E0,-1.141122025E1,4.737648010E-1,1.226917145E1
1.027895958E1,3.632047119E0,-1.118444183E1,9.548643494E-1,1.179810457E1
1.028899758E1,3.121907959E0,-1.039992325E1,8.232879639E-2,1.085870577E1
1.029903458E1,2.740501099E0,-9.976154480E0,-3.987707520E-1,1.035340633E1
1.030907258E1,1.621577911E0,-8.916358337E0,-9.657916260E-1,9.113929690E0
1.031911058E1,4.273612976E-1,-7.796986084E0,-9.837542725E-1,7.870413086E0
1.032914758E1,-1.080602875E0,-7.317233734E0,-1.048270111E0,7.470507501E0
1.033918558E1,-2.683170319E0,-9.377100220E0,-5.858816528E-1,9.771011657E0
1.034922358E1,-2.739303589E-1,-1.229617996E1,1.805395660E0,1.243103105E1
1.035926058E1,3.508703613E0,-1.017374359E1,2.692900085E0,1.109359142E1
1.036929858E1,5.136119385E0,-9.195078735E0,2.199526062E0,1.075951254E1
1.037933721E1,4.884342957E0,-1.031310379E1,1.517993317E0,1.151178612E1
1.038937421E1,4.897814941E0,-1.026804749E1,1.069974976E0,1.142655840E1
1.039941221E1,4.094884644E0,-9.101523285E0,-5.080435181E-1,9.993193412E0
1.040945021E1,4.008514252E0,-9.235794067E0,-2.139051819E0,1.029289178E1
1.041948721E1,4.464316406E0,-1.031534912E1,-2.539768524E0,1.152332299E1
1.042952521E1,5.258265381E0,-1.052221893E1,-2.040856018E0,1.193865735E1
1.043956321E1,4.929249573E0,-9.933343506E0,-1.825903015E0,1.123844902E1
1.044960021E1,5.531596985E0,-8.536897430E0,-1.486558685E0,1.028042021E1
1.045963821E1,6.318211212E0,-6.399492188E0,-1.251547394E0,9.079629071E0
1.046967621E1,5.026547241E0,-7.535779266E0,-1.525028687E0,9.185851012E0
1.047971321E1,3.541186066E0,-1.035681290E1,-1.088686066E0,1.099949133E1
1.048975121E1,2.446512451E0,-1.236503677E1,-1.808239746E-1,1.260604041E1
1.049978921E1,1.997296600E0,-1.253029312E1,1.619631958E-1,1.268951029E1
1.050982621E1,1.748064880E0,-1.193528046E1,3.390449524E-1,1.206737759E1
1.051986421E1,2.320175171E0,-1.051054321E1,1.335223389E-1,1.076441172E1
1.052990221E1,5.233417053E0,-6.150859222E0,-9.645941162E-1,8.133398124E0
1.053993921E1,5.045557709E0,-5.045857086E0,-1.754950562E0,7.348345242E0
1.054997721E1,3.331771545E0,-7.135811005E0,-1.450633392E0,8.007798547E0
1.056001521E1,3.162174225E0,-7.921527100E0,-8.876541138E-2,8.529819266E0
1.057005221E1,3.145708466E0,-8.598269806E0,2.815644836E-1,9.159967465E0
1.058009021E1,3.310216370E0,-8.952732697E0,6.065386963E-1,9.564352793E0
1.059012821E1,3.400778046E0,-8.592881012E0,1.348246307E0,9.339200368E0
1.060016521E1,3.649560699E0,-7.692952423E0,1.417701874E0,8.631957419E0
1.061020321E1,3.715124359E0,-6.985523529E0,8.771759033E-1,7.960472696E0
1.062024121E1,3.868854675E0,-7.248376923E0,1.703457642E-1,8.218030311E0
1.063027821E1,3.964505768E0,-9.074130249E0,-1.156345367E0,9.969668017E0
1.064031621E1,3.712280273E0,-1.205054077E1,-2.557431793E0,1.286611888E1
1.065035421E1,2.838547211E0,-1.409858185E1,-2.572400665E0,1.460974352E1
1.066039121E1,3.350033569E0,-1.263028519E1,-1.735491028E0,1.318175853E1
1.067042921E1,4.320914612E0,-9.976004791E0,-3.933819580E-1,1.087868209E1
1.068046721E1,4.464017029E0,-8.068671112E0,4.432283020E-1,9.231866164E0
1.069050421E1,4.200415192E0,-6.998546448E0,4.352947998E-1,8.173898808E0
1.070054221E1,3.526516571E0,-7.362439728E0,3.167413330E-1,8.169587685E0
1.071058021E1,3.547622681E0,-7.826025696E0,-2.299218750E-1,8.595648256E0
1.072061721E1,2.576741638E0,-8.219707031E0,1.686991882E-1,8.615778582E0
1.073065521E1,1.965113525E0,-9.166338501E0,1.378633118E-1,9.375630057E0
1.074069321E1,1.911375275E0,-9.701475677E0,-5.418731689E-1,9.902808303E0
1.075073021E1,3.296145630E0,-9.343869324E0,-6.063890076E-1,9.926740532E0
1.076076821E1,3.524570618E0,-8.590635681E0,-1.542991333E0,9.412887001E0
1.077080621E1,3.160078583E0,-8.758736115E0,-1.185235291E0,9.386497625E0
1.078084321E1,4.196972351E0,-8.887019348E0,6.301895142E-2,9.828410919E0
1.079088121E1,4.110751648E0,-9.082363129E0,3.451821899E-1,9.975307006E0
1.080091921E1,2.467019806E0,-1.018347336E1,-3.338058472E-1,1.048335551E1
1.081095621E1,1.168021088E0,-1.066996170E1,-9.068142700E-1,1.077193892E1
1.082099421E1,1.129102020E0,-9.941576385E0,-3.143463135E-1,1.001042587E1
1.083103221E1,9.500743103E-1,-9.871222687E0,-8.104147339E-1,9.949897013E0
1.084106921E1,1.491648102E0,-9.554032288E0,-3.510200500E-1,9.676143968E0
1.085110721E1,3.369343414E0,-8.441246338E0,1.187031555E-1,9.089620741E0
1.086114521E1,3.964056702E0,-8.255632324E0,1.076261902E-1,9.158645861E0
1.087118221E1,3.669768677E0,-9.273515625E0,6.060896301E-1,9.991628437E0
1.088122021E1,3.968247986E0,-9.545050964E0,7.828720093E-1,1.036667153E1
1.089125821E1,3.731739807E0,-9.735305328E0,4.044589233E-1,1.043386979E1
1.090129521E1,2.992876282E0,-1.011746063E1,8.801696777E-2,1.055121155E1
1.091133321E1,2.836601257E0,-9.686806183E0,-3.344046021E-1,1.009912606E1
1.092137121E1,3.036884766E0,-9.044940948E0,-7.934999084E-1,9.574093584E0
1.093140821E1,3.333867188E0,-8.724457397E0,-7.008425903E-1,9.366002757E0
1.094144621E1,3.468287659E0,-8.864266663E0,-3.746708679E-1,9.525997114E0
1.095148421E1,3.370690613E0,-8.906927948E0,9.385482788E-2,9.523850556E0
1.096152121E1,3.350632324E0,-8.839568024E0,1.054856415E0,9.511962041E0
1.097155921E1,2.646197205E0,-9.269174652E0,1.066831512E0,9.698354904E0
1.098159721E1,2.451751556E0,-9.268126831E0,4.487667847E-1,9.597429462E0
1.099163421E1,2.285297699E0,-9.394164734E0,-3.174897766E-1,9.673350835E0
1.100167221E1,1.904489594E0,-1.054317535E1,-7.346722412E-1,1.073896506E1
1.101171021E1,3.206332397E0,-1.028136978E1,-5.761518860E-1,1.078513250E1
1.102174721E1,4.146377563E0,-9.786947937E0,-8.635542297E-1,1.066407627E1
1.103178521E1,4.259691925E0,-9.294621735E0,-9.550140381E-1,1.026873996E1
1.104182321E1,4.317920837E0,-8.730145569E0,-7.156617737E-1,9.765861651E0
1.105186021E1,4.152365112E0,-8.589438171E0,-1.889071655E-1,9.542340910E0
1.106189821E1,3.319048004E0,-9.013206940E0,1.163081360E-1,9.605597669E0
1.107193621E1,2.676284637E0,-9.709708557E0,7.990383911E-1,1.010343516E1
1.108197321E1,2.352807312E0,-1.023960663E1,1.482966156E0,1.061058126E1
1.109201121E1,2.114203491E0,-1.100212097E1,1.334325256E0,1.128259483E1
1.110204921E1,2.168390808E0,-1.060454773E1,5.387297058E-1,1.083736965E1
1.111208621E1,3.019670563E0,-9.546547852E0,1.990859985E-1,1.001472024E1
1.112212421E1,3.790717163E0,-8.895252228E0,5.673202515E-2,9.669450208E0
1.113216221E1,4.459226990E0,-8.575816498E0,-1.945953369E-3,9.665885254E0
1.114219921E1,3.704646149E0,-8.310418396E0,-1.993853760E-1,9.100945639E0
1.115223721E1,2.605032806E0,-8.071365509E0,2.796185303E-1,8.485948599E0
1.116227521E1,2.395917664E0,-8.300988007E0,6.788383484E-1,8.666466687E0
1.117231221E1,2.233804779E0,-8.870104523E0,6.477030945E-1,9.169959506E0
1.118235021E1,2.213297424E0,-9.308393097E0,3.899391174E-1,9.575850879E0
1.119238821E1,1.961670685E0,-9.611213379E0,2.065704346E-1,9.811536365E0
1.120242521E1,1.972597961E0,-9.242679749E0,2.249821472E-1,9.453511973E0
1.121246321E1,2.324965210E0,-9.072783051E0,7.559280396E-2,9.366246302E0
1.122250121E1,3.231180725E0,-8.816366272E0,1.814227295E-1,9.391579065E0
1.123253821E1,3.590433655E0,-8.907377014E0,2.336640930E-1,9.606621571E0
1.124257621E1,3.083887024E0,-9.786199493E0,2.893482971E-1,1.026468617E1
1.125261421E1,3.058140564E0,-9.982890472E0,4.203259277E-1,1.044925834E1
1.126265121E1,3.090323639E0,-9.928403778E0,1.196012878E-1,1.039892332E1
1.127268921E1,2.719694366E0,-9.705816650E0,-1.883084106E-1,1.008142224E1
1.128272721E1,1.647324371E0,-9.371861115E0,-1.393601990E-1,9.516558180E0
1.129276421E1,1.505419464E0,-8.738228760E0,1.175056458E-1,8.867735742E0
1.130280221E1,2.180216217E0,-8.356821899E0,4.695735168E-1,8.649295596E0
1.131284021E1,2.853815460E0,-8.513246613E0,5.884263611E-1,8.998104031E0
1.132287721E1,3.716920624E0,-8.830586700E0,2.188449097E-1,9.583457283E0
1.133291521E1,4.361929321E0,-9.097332001E0,-3.956272888E-1,1.009675185E1
1.134295321E1,4.273163910E0,-9.360035706E0,-5.604345703E-1,1.030457593E1
1.135299021E1,3.824397125E0,-9.081614685E0,-5.017565918E-1,9.866787640E0
1.136302821E1,3.323688354E0,-8.407716064E0,-1.926493835E-1,9.042881592E0
1.137306596E1,2.745291138E0,-8.602461090E0,2.381547546E-1,9.033032598E0
1.138310296E1,2.309397583E0,-9.309141541E0,1.275347900E-1,9.592168605E0
1.139314096E1,2.487227783E0,-9.081614685E0,-5.613327026E-2,9.416218895E0
1.140317896E1,2.338886261E0,-9.286239166E0,-1.694476318E-1,9.577752309E0
1.141321596E1,2.127376099E0,-9.595496063E0,-1.392105103E-2,9.828502814E0
1.142325396E1,1.936223602E0,-9.193132782E0,4.471202087E-1,9.405454198E0
1.143329196E1,2.035018158E0,-1.033690430E1,2.893482971E-1,1.053928896E1
1.144332996E1,2.687660980E0,-1.190728867E1,-3.827540588E-1,1.221284347E1
1.145336696E1,3.778442688E0,-1.031400192E1,-1.064586182E0,1.103578763E1
1.146340496E1,3.687881012E0,-8.562793579E0,3.323089600E-1,9.329111934E0
1.147344296E1,3.480412445E0,-8.391699371E0,2.540516968E0,9.433351239E0
1.148347996E1,2.725083160E0,-9.113947449E0,-6.667135620E-1,9.535964728E0
1.149351796E1,2.529440002E0,-1.014275803E1,-1.838626556E0,1.061386615E1
1.150355596E1,2.719844055E0,-1.032073792E1,5.867797852E-2,1.067326688E1
1.151359296E1,3.150348816E0,-1.022299118E1,6.574328613E-1,1.071757735E1
1.152363096E1,2.237996063E0,-1.025712021E1,2.613565063E-1,1.050168789E1
1.153366896E1,1.446142731E0,-9.985584869E0,4.237687683E-1,1.009865407E1
1.154370596E1,1.977238312E0,-9.830657043E0,8.077203369E-1,1.006000504E1
1.155374396E1,2.038610687E0,-9.533973999E0,4.532574463E-1,9.760022339E0
1.156378196E1,2.275867310E0,-9.548044739E0,-2.737806702E-1,9.819352636E0
1.157381896E1,3.609144745E0,-1.003498215E1,7.304809570E-2,1.066452664E1
1.158385696E1,3.753145294E0,-1.059032730E1,-1.751358032E-2,1.123572155E1
1.159389496E1,3.086132355E0,-1.061577438E1,-7.804769897E-1,1.108278047E1
1.160393196E1,2.518512726E0,-9.770781555E0,-1.094523926E0,1.014933797E1
1.161396996E1,2.167043610E0,-9.333241425E0,-1.081800385E0,9.642394182E0
1.162400796E1,2.708617401E0,-8.634943542E0,-5.650749207E-1,9.067423442E0
1.163404496E1,3.009791107E0,-7.876919861E0,4.224215698E-1,8.442934856E0
1.164408296E1,2.878214722E0,-8.240813141E0,1.287921753E0,8.823483646E0
1.165412096E1,2.585273895E0,-8.563392334E0,9.942324829E-1,9.000212642E0
1.166415796E1,2.113305359E0,-8.632398834E0,8.345146179E-1,8.926409346E0
1.167419596E1,2.034120026E0,-9.817334747E0,1.148112488E0,1.009137593E1
1.168423396E1,1.503772888E0,-8.178243256E0,1.158590698E-1,8.316154097E0
1.169427096E1,1.695973206E0,-7.993677063E0,4.941224670E-1,8.186534988E0
1.170430896E1,1.163979492E0,-9.817484436E0,-4.879852295E-1,9.898281593E0
1.171434696E1,3.048710175E0,-9.278904419E0,-1.688039703E0,9.911719275E0
1.172438396E1,2.857557678E0,-1.106424179E1,-7.587721252E-1,1.145245901E1
1.173442196E1,2.999462585E0,-1.117710709E1,4.281097412E-2,1.157265447E1
1.174445996E1,2.677931213E0,-1.091530151E1,-1.022972717E0,1.128545949E1
1.175449696E1,2.192041626E0,-1.076890594E1,-1.613943787E0,1.110761884E1
1.176453496E1,2.505190430E0,-9.324709167E0,-2.186652832E0,9.899880340E0
1.177457296E1,2.984942780E0,-8.927435303E0,-1.541494446E0,9.538615707E0
1.178460996E1,3.769461365E0,-8.434210968E0,-2.716850281E-1,9.242216530E0
1.179464796E1,3.391796722E0,-8.637937317E0,4.852908325E-1,9.292672021E0
1.180468596E1,2.842738495E0,-8.311017151E0,9.107061768E-1,8.830829744E0
1.181472296E1,1.466799774E0,-8.452772369E0,8.190966797E-1,8.618107778E0
1.182476096E1,1.308129730E0,-8.925489349E0,-1.031355286E-1,9.021430067E0
1.183479896E1,1.912572784E0,-7.908653870E0,-1.808239746E-1,8.138638584E0
1.184483596E1,1.392254791E0,-8.102051697E0,-1.076261902E0,8.290956204E0
1.185487396E1,2.651735687E0,-9.057215424E0,-1.482217712E0,9.553105397E0
1.186491196E1,3.421734467E0,-9.958790588E0,6.182144165E-1,1.054836318E1
1.187494896E1,3.028053131E0,-9.356742554E0,6.099815369E-1,9.853416385E0
1.188498696E1,2.122136993E0,-8.732989655E0,-3.921844482E-2,8.987219359E0
1.189502496E1,1.282832336E0,-9.624236298E0,-9.738748169E-1,9.758074363E0
1.190506196E1,1.935624847E0,-1.055604858E1,-1.570833435E0,1.084639677E1
1.191509996E1,2.839445343E0,-1.049003586E1,-1.690883789E0,1.099829033E1
1.192513796E1,3.616180115E0,-9.895472260E0,-1.057101746E0,1.058841792E1
1.193517496E1,4.118834839E0,-8.569529572E0,-2.636018372E-1,9.511630956E0
1.194521296E1,3.630999298E0,-8.344697113E0,-5.180726624E-1,9.115181024E0
1.195525096E1,3.712280273E0,-7.805518341E0,-2.188898163E0,8.916188455E0
1.196528796E1,3.085982666E0,-8.049810333E0,-2.167193298E0,8.889289185E0
1.197532596E1,6.041436768E-1,-9.315877533E0,1.995949402E0,9.546432727E0
1.198536396E1,-9.369017029E-1,-1.197779205E1,3.341052246E0,1.247028137E1
1.199540096E1,-4.059558105E-1,-1.154668854E1,3.376977539E-1,1.155875668E1
1.200543896E1,1.793570251E0,-1.147304169E1,-2.129471741E0,1.180602514E1
1.201547696E1,3.606450348E0,-1.033181488E1,-2.648143158E0,1.125902061E1
1.202551496E1,4.521048431E0,-9.189839630E0,-3.057691498E0,1.068842873E1
1.203555196E1,5.439837799E0,-8.551566925E0,-2.987188110E0,1.056619255E1
1.204558996E1,5.787415009E0,-8.009693756E0,-2.187700653E0,1.012103753E1
1.205562796E1,4.581372986E0,-8.756191406E0,-1.467248840E0,9.990629887E0
1.206566496E1,3.328328705E0,-9.747280426E0,-9.213340759E-1,1.034099145E1
1.207570296E1,3.010090485E0,-1.008916946E1,-1.002016296E0,1.057620073E1
1.208574096E1,3.516637115E0,-1.022808060E1,-2.055076447E0,1.100925558E1
1.209577796E1,3.491190033E0,-1.013662079E1,9.086105347E-2,1.072136860E1
1.210581596E1,2.618953857E0,-9.254056091E0,2.446213074E0,9.923730743E0
1.211585396E1,2.544708252E0,-8.356522522E0,2.366878052E0,9.050365764E0
1.212589096E1,2.931204529E0,-7.323071594E0,1.335822144E0,8.000234894E0
1.213592896E1,2.372865601E0,-8.062533875E0,-4.537065125E-1,8.416697288E0
1.214596696E1,2.752027130E0,-8.803642731E0,-2.897823944E0,9.668255389E0
1.215600396E1,3.093018036E0,-9.424401855E0,-4.381089478E0,1.084343377E1
1.216604196E1,3.302731934E0,-9.572893066E0,-4.098477173E0,1.092455194E1
1.217607996E1,3.097658386E0,-9.871671753E0,-3.000959473E0,1.077270386E1
1.218611696E1,2.720442810E0,-1.026520340E1,-1.484313354E0,1.072279796E1
1.219615496E1,3.420836334E0,-9.563312988E0,-4.845423889E-1,1.016827704E1
1.220619296E1,3.752097473E0,-8.720116425E0,6.765930176E-2,9.493326271E0
1.221622996E1,2.869682465E0,-9.214388580E0,-9.720785522E-1,9.699740773E0
1.222626796E1,2.817141724E0,-8.984915771E0,-1.250798950E0,9.498920830E0
1.223630596E1,2.834505615E0,-8.803043976E0,-5.557942200E-1,9.264821236E0
1.224634296E1,2.660717010E0,-9.258696442E0,-4.155358887E-1,9.642382739E0
1.225638096E1,2.304158478E0,-9.399403839E0,-1.083896027E0,9.738211818E0
1.226641896E1,2.119741974E0,-9.564809875E0,-1.356628876E0,9.890365812E0
1.227645596E1,1.909429321E0,-1.030322433E1,-1.331930237E0,1.056297260E1
1.228649396E1,1.827100525E0,-1.045126648E1,-1.098415833E0,1.066647949E1
1.229653196E1,2.262395325E0,-9.589209137E0,-7.530839539E-1,9.881219556E0
1.230656896E1,2.832859039E0,-8.939859467E0,-3.502716064E-1,9.384501469E0
1.231660696E1,2.896177368E0,-9.025182037E0,-6.349795532E-1,9.499734375E0
1.232664496E1,2.602787476E0,-8.921747131E0,-9.891430664E-1,9.346147791E0
1.233668196E1,2.525398407E0,-8.926686859E0,-2.102827148E0,9.512373910E0
1.234671996E1,2.379302216E0,-9.158105621E0,-2.521207123E0,9.792265466E0
1.235675796E1,1.938019867E0,-9.399403839E0,-2.423011322E0,9.898267394E0
1.236679496E1,1.629810791E0,-9.045839081E0,-2.190095673E0,9.448809816E0
1.237683333E1,2.061662750E0,-8.345445557E0,-1.175954590E0,8.676392340E0
1.238687133E1,2.588716736E0,-8.521629181E0,-1.649569702E-1,8.907683708E0
1.239690833E1,2.773881683E0,-9.046587524E0,4.845423889E-1,9.474700352E0
1.240694633E1,2.809357910E0,-9.335935822E0,3.056643677E-1,9.754261645E0
1.241698433E1,2.752326508E0,-9.554631042E0,-3.165916443E-1,9.948191083E0
1.242702133E1,2.989732819E0,-9.617350616E0,-1.846560059E0,1.023922454E1
1.243705933E1,3.061583405E0,-9.654623108E0,-2.914589081E0,1.053944352E1
1.244709733E1,2.733615417E0,-9.713151398E0,-3.027005310E0,1.053473894E1
1.245713433E1,2.828967133E0,-9.267228699E0,-2.090402985E0,9.912334106E0
1.246717233E1,3.497926025E0,-8.903784485E0,-7.535330200E-1,9.595867686E0
1.247721033E1,2.584375763E0,-9.262738037E0,6.137237549E-1,9.636076529E0
1.248724833E1,1.916614380E0,-9.304351501E0,-9.654922485E-2,9.500194172E0
1.249728533E1,2.215393066E0,-9.445507965E0,-1.184337158E0,9.773855005E0
1.250732333E1,2.339335327E0,-9.401050415E0,-1.705403595E0,9.836698638E0
1.251736133E1,1.931882629E0,-9.611812134E0,-2.098635864E0,1.002613462E1
1.252739833E1,2.060016174E0,-9.641600189E0,-1.913770294E0,1.004323840E1
1.253743633E1,2.562970276E0,-9.152118073E0,-1.572779388E0,9.633468578E0
1.254747433E1,2.655777283E0,-9.141490173E0,-1.598825226E0,9.652783934E0
1.255751133E1,2.690205688E0,-9.358987885E0,-1.189127197E0,9.810294815E0
1.256754933E1,2.822231140E0,-9.470206604E0,-1.088985443E0,9.941614106E0
1.257758733E1,2.797083435E0,-9.507030029E0,-1.635349274E0,1.004398641E1
1.258762433E1,2.448907471E0,-9.383387146E0,-2.215692444E0,9.947582377E0
1.259766233E1,1.984273682E0,-9.449998627E0,-2.522554321E0,9.980135089E0
1.260770033E1,1.842817841E0,-9.764644318E0,-2.794389038E0,1.032244479E1
1.261773733E1,2.556234283E0,-9.319470062E0,-2.777623901E0,1.005495154E1
1.262777533E1,3.144660645E0,-8.412655792E0,-2.052232361E0,9.212672018E0
1.263781333E1,3.631598053E0,-7.916287994E0,-8.484356689E-1,8.750769287E0
1.264785033E1,3.678450623E0,-8.177045746E0,-1.854643250E-1,8.968248052E0
1.265788833E1,3.423680420E0,-8.622818756E0,-1.104702759E-1,9.278296967E0
1.266792633E1,2.908002777E0,-9.507479095E0,-1.058299255E-1,9.942828515E0
1.267796333E1,2.464026031E0,-1.034423904E1,-5.736071777E-1,1.064911878E1
1.268800133E1,2.645149384E0,-1.035441788E1,-1.550176392E0,1.079878844E1
1.269803933E1,3.172353058E0,-9.539961548E0,-2.106269989E0,1.027185784E1
1.270807633E1,3.729195099E0,-8.818611603E0,-2.485581207E0,9.892063517E0
1.271811433E1,3.755390625E0,-8.636889496E0,-2.345173187E0,9.705599218E0
1.272815233E1,3.157384186E0,-8.770860901E0,-1.548230438E0,9.449555192E0
1.273818933E1,2.655028839E0,-9.097032623E0,-1.320254517E0,9.568085110E0
1.274822733E1,2.405647430E0,-9.201365662E0,-1.310375061E0,9.600487092E0
1.275826533E1,1.767524414E0,-8.922046509E0,-1.411414948E0,9.204300550E0
1.276830233E1,1.402134247E0,-9.474996643E0,-1.715881805E0,9.730662475E0
1.277834033E1,7.979905701E-1,-1.011267059E1,-1.087787933E0,1.020226338E1
1.278837833E1,1.417552185E0,-1.007524841E1,-2.040257263E-1,1.017652747E1
1.279841533E1,2.777773590E0,-8.679700470E0,1.484912109E-1,9.114563950E0
1.280845333E1,3.322041779E0,-8.336015167E0,-8.382568359E-3,8.973582379E0
1.281849133E1,3.015030212E0,-8.532257080E0,-4.327500916E-1,9.059640760E0
1.282852833E1,3.003354492E0,-8.720116425E0,-3.427871704E-1,9.229196699E0
1.283856633E1,2.894231415E0,-9.872719574E0,-5.858816528E-1,1.030487383E1
1.284860433E1,2.269879761E0,-1.021984772E1,-9.226812744E-1,1.050947107E1
1.285864133E1,1.742376709E0,-9.990075531E0,-2.350412292E0,1.040970334E1
1.286867933E1,1.995350647E0,-9.338031464E0,-3.779340820E0,1.026955076E1
1.287871733E1,2.526296539E0,-9.419761505E0,-2.948418732E0,1.018858450E1
1.288875433E1,2.770438843E0,-1.017434235E1,-1.685045929E0,1.067857450E1
1.289879233E1,3.076252899E0,-9.751172333E0,-8.686436462E-1,1.026173648E1
1.290883033E1,3.165467377E0,-9.091194763E0,-1.098266144E0,9.688972828E0
1.291886833E1,2.440824280E0,-8.804690552E0,-7.972421265E-1,9.171466289E0
1.292890533E1,2.240241394E0,-8.262368317E0,4.586462402E-1,8.572967285E0
1.293894333E1,2.456840973E0,-8.474477234E0,2.031275940E-1,8.825763014E0
1.294898133E1,2.565365295E0,-8.953032074E0,-2.474354553E-1,9.316603819E0
1.295901833E1,2.559377747E0,-9.208999786E0,-1.023571472E0,9.612689014E0
1.296905633E1,2.235301666E0,-9.392518158E0,-2.228715363E0,9.908740740E0
1.297909433E1,2.241438904E0,-9.705068207E0,-3.151845703E0,1.044732160E1
1.298913133E1,2.793490906E0,-9.432634735E0,-2.811902618E0,1.023156810E1
1.299916933E1,3.333118744E0,-9.188642120E0,-2.149380341E0,1.000802980E1
1.300920733E1,3.819307709E0,-9.148226166E0,-1.654210052E0,1.005055045E1
1.301924433E1,3.827241211E0,-9.444310455E0,-1.287921753E0,1.027139317E1
1.302928233E1,3.018473053E0,-1.049811905E1,-1.155147858E0,1.098435477E1
1.303932033E1,2.139351196E0,-1.136032608E1,-9.324110413E-1,1.159755244E1
1.304935733E1,2.132166138E0,-1.128652954E1,-1.242416382E0,1.155315887E1
1.305939533E1,2.973267059E0,-1.023287064E1,-1.475032654E0,1.075768004E1
1.306943333E1,3.763473816E0,-9.096882935E0,-1.057999878E0,9.901332134E0
1.307947033E1,4.095034332E0,-8.861572266E0,-6.532415771E-1,9.783838396E0
1.308950833E1,3.946393433E0,-8.698112183E0,-5.839356995E-1,9.569334228E0
1.309954633E1,3.479963379E0,-8.596623230E0,-3.387455750E-1,9.280453903E0
1.310958333E1,2.762655029E0,-8.630752258E0,-2.900967407E-1,9.066769186E0
1.311962133E1,2.700833588E0,-8.728948059E0,-2.448907471E-1,9.140514633E0
1.312965933E1,3.251089325E0,-8.570727081E0,-5.146298218E-1,9.181055950E0
1.313969633E1,3.278482361E0,-8.801247711E0,-1.457369385E0,9.504437563E0
1.314973433E1,2.664459229E0,-9.139244843E0,-2.287093964E0,9.790604581E0
1.315977233E1,2.426753540E0,-9.295070801E0,-2.504741364E0,9.927799516E0
1.316980933E1,2.207010498E0,-9.329499207E0,-2.300715637E0,9.859195871E0
1.317984733E1,2.203867035E0,-9.365574188E0,-1.490450592E0,9.736141574E0
1.318988533E1,2.614612885E0,-8.998836823E0,-7.414082336E-1,9.400263340E0
1.319992233E1,2.977009277E0,-8.818461914E0,-3.974235535E-1,9.315889665E0
1.320996033E1,3.071163483E0,-9.104816437E0,-1.196012878E-1,9.609580217E0
1.321999833E1,3.337759094E0,-9.124425659E0,-1.995350647E-1,9.717797776E0
1.323003533E1,3.437451782E0,-9.340426483E0,-5.659730530E-1,9.968950152E0
1.324007333E1,2.946323090E0,-1.002644989E1,-7.851173401E-1,1.047983427E1
1.325011133E1,2.650089111E0,-1.001941452E1,-1.303639069E0,1.044562657E1
1.326014833E1,2.772534485E0,-9.597741394E0,-1.864522705E0,1.016267840E1
1.327018633E1,2.670297089E0,-9.219927063E0,-1.889221344E0,9.782980061E0
1.328022433E1,2.525099030E0,-8.914113007E0,-2.055226135E0,9.490073249E0
1.329026133E1,2.453996887E0,-8.663983154E0,-1.888622589E0,9.200739106E0
1.330029933E1,2.195334778E0,-8.581804047E0,-1.708996124E0,9.021503380E0
1.331033733E1,1.841770020E0,-9.061556396E0,-1.376387787E0,9.348709241E0
1.332037533E1,1.828447723E0,-9.322164459E0,-8.255332947E-1,9.535589992E0
1.333041233E1,2.001338196E0,-9.664652252E0,-6.298901367E-1,9.889773471E0
1.334045033E1,2.066602478E0,-9.732311554E0,-7.170089722E-1,9.975110819E0
1.335048833E1,2.477498016E0,-9.367520142E0,-1.241518250E0,9.768817615E0
1.336052533E1,2.620899811E0,-9.793384552E0,-1.486858063E0,1.024647470E1
1.337056333E1,3.144510956E0,-9.460027771E0,-1.609602814E0,1.009806396E1
1.338060108E1,3.272045746E0,-9.303153992E0,-1.528471527E0,9.979538204E0
1.339063808E1,2.823877716E0,-9.847272491E0,-1.073118439E0,1.030022544E1
1.340067608E1,2.911445618E0,-9.700278168E0,-8.535250854E-1,1.016368128E1
1.341071408E1,2.909948730E0,-9.246421967E0,-7.246430969E-1,9.720557001E0
1.342075108E1,2.720891876E0,-8.811875610E0,-1.145418091E0,9.293244158E0
1.343078908E1,2.720592499E0,-8.252339172E0,-1.899100800E0,8.894341415E0
1.344082708E1,2.709365845E0,-8.083789673E0,-2.203567657E0,8.805908765E0
1.345086408E1,2.590513000E0,-8.850944366E0,-2.230661316E0,9.488193911E0
1.346090208E1,2.350412292E0,-9.862690430E0,-1.885479126E0,1.031271700E1
1.347094008E1,2.401605835E0,-1.006087830E1,-1.119671631E0,1.040397267E1
1.348097708E1,2.430645447E0,-1.002270767E1,-3.900888062E-1,1.032060442E1
1.349101508E1,2.617307281E0,-9.663754120E0,-6.900650024E-1,1.003566793E1
1.350105308E1,3.168161774E0,-8.738677826E0,-1.418600006E0,9.402880683E0
1.351109008E1,3.119662628E0,-8.187074890E0,-2.076631622E0,9.004048482E0
1.352112808E1,2.598745880E0,-9.114695892E0,-2.421664124E0,9.782413735E0
1.353116608E1,2.299967194E0,-9.610764313E0,-2.202370148E0,1.012457772E1
1.354120308E1,2.495161285E0,-9.607022095E0,-1.676513672E0,1.006634996E1
1.355124108E1,3.125799866E0,-9.222920837E0,-9.291178894E-1,9.782441087E0
1.356127908E1,3.485950928E0,-8.742569733E0,-5.001100159E-1,9.425205007E0
1.357131608E1,3.387306061E0,-9.184450836E0,-4.288581848E-1,9.798566163E0
1.358135408E1,2.860701141E0,-1.008812164E1,-3.357518005E-1,1.049126010E1
1.359139208E1,2.061962128E0,-1.061113403E1,-1.163081360E0,1.087201046E1
1.360142908E1,1.926793213E0,-1.037028488E1,-1.190923462E0,1.061478400E1
1.361146708E1,2.636467438E0,-9.375004578E0,-8.675958252E-1,9.777238562E0
1.362150508E1,3.263064423E0,-8.399932251E0,-1.161285095E0,9.085980097E0
1.363154308E1,3.012485504E0,-8.331973572E0,-1.543290710E0,8.993252956E0
1.364158008E1,2.503543854E0,-8.560099182E0,-1.917063446E0,9.122398922E0
1.365161808E1,2.744393005E0,-8.369246063E0,-2.404599609E0,9.130064179E0
1.366165608E1,3.505560150E0,-7.631430359E0,-2.742147675E0,8.834424438E0
1.367169308E1,3.831133118E0,-8.158783722E0,-2.143692169E0,9.264920340E0
1.368173108E1,3.638334045E0,-9.492959290E0,-1.905387726E0,1.034331925E1
1.369176908E1,3.156036987E0,-1.081515976E1,-2.170037384E0,1.147333048E1
1.370180608E1,3.023113403E0,-1.091679840E1,-1.887425079E0,1.148381798E1
1.371184408E1,3.022664337E0,-1.023616379E1,-1.422192535E0,1.076745933E1
1.372188208E1,3.137625275E0,-9.130562897E0,-1.245559845E0,9.734643830E0
1.373191908E1,2.871628418E0,-8.454718323E0,-1.145567780E0,9.002268449E0
1.374195708E1,2.177521820E0,-8.843160553E0,-1.642534332E0,9.254242750E0
1.375199508E1,1.519190826E0,-9.325158234E0,-1.850751343E0,9.627657939E0
1.376203208E1,1.598825226E0,-9.320817261E0,-1.338815918E0,9.551246231E0
1.377207008E1,2.534679108E0,-9.199719086E0,-5.647755432E-1,9.559205032E0
1.378210808E1,2.982098694E0,-9.201515350E0,-2.534230042E-1,9.676002304E0
1.379214508E1,3.144211578E0,-8.921597443E0,-8.975335693E-1,9.501922642E0
1.380218308E1,3.321742401E0,-8.701405334E0,-1.159937897E0,9.385834182E0
1.381222108E1,2.996169434E0,-8.813671875E0,-2.070494385E0,9.536497795E0
1.382225808E1,2.648741913E0,-9.106912079E0,-3.168311462E0,9.999493930E0
1.383229608E1,2.006128235E0,-9.496252441E0,-3.732937317E0,1.039895100E1
1.384233408E1,1.446292419E0,-1.014650024E1,-3.260819092E0,1.075528568E1
1.385237108E1,2.006277924E0,-1.017673737E1,-2.489024048E0,1.066706966E1
1.386240908E1,2.892285461E0,-9.286837921E0,-8.861572266E-1,9.767084949E0
1.387244708E1,3.532504120E0,-9.485774231E0,-1.891466675E0,1.029738531E1
1.388248508E1,2.831362152E0,-1.008842102E1,-2.439028015E0,1.075833203E1
1.389252208E1,2.176473999E0,-9.535770264E0,-7.979905701E-1,9.813497977E0
1.390256008E1,2.135010223E0,-8.863069153E0,-4.354444885E-1,9.126986105E0
1.391259808E1,2.453996887E0,-8.199648743E0,-3.959266663E-1,8.568144382E0
1.392263508E1,2.568508759E0,-8.304730225E0,-6.900650024E-1,8.720204760E0
1.393267308E1,2.204615479E0,-8.768465881E0,-1.085841980E0,9.106337141E0
1.394271108E1,2.075733490E0,-8.951235809E0,-1.263821869E0,9.275264835E0
1.395274808E1,2.254162445E0,-9.285490723E0,-1.373543701E0,9.653403990E0
1.396278608E1,2.433339844E0,-9.412426758E0,-1.159039764E0,9.790724868E0
1.397282408E1,2.890339508E0,-9.053173828E0,-1.328487396E0,9.595774987E0
1.398286108E1,3.157982941E0,-9.114995270E0,-1.510808258E0,9.764145463E0
1.399289908E1,3.000959473E0,-9.560917969E0,-2.049837341E0,1.022833043E1
1.400293708E1,2.944975891E0,-9.607321472E0,-2.408192139E0,1.033309722E1
1.401297408E1,2.943628693E0,-9.723030853E0,-1.867666168E0,1.032910721E1
1.402301208E1,2.573897552E0,-9.524543610E0,-1.230890350E0,9.942684277E0
1.403305008E1,2.239492950E0,-9.301208038E0,-6.809339905E-1,9.591218418E0
1.404308708E1,2.578388214E0,-9.054371338E0,-1.102607117E0,9.478684959E0
1.405312508E1,3.067421265E0,-8.655450897E0,-2.038161621E0,9.406381145E0
1.406316308E1,3.105591888E0,-8.574169922E0,-3.335962830E0,9.710290358E0
1.407320008E1,2.870281219E0,-9.270372162E0,-3.877536621E0,1.045053130E1
1.408323808E1,2.290087738E0,-1.018062927E1,-2.589614868E0,1.075154963E1
1.409327608E1,2.768343201E0,-9.467212830E0,-5.453160095E-1,9.878725241E0
1.410331408E1,2.431693268E0,-9.104966125E0,5.206173706E-1,9.438462944E0
1.411335108E1,1.735790405E0,-8.975635071E0,1.508413239E0,9.265543899E0
1.412338908E1,1.906884613E0,-8.922645264E0,8.415499878E-1,9.162860569E0
1.413342708E1,2.463277588E0,-9.052126007E0,-1.101559296E0,9.445747964E0
1.414346408E1,2.493963776E0,-9.550439758E0,-2.387235718E0,1.015527692E1
1.415350208E1,2.303110657E0,-9.673483887E0,-3.212020569E0,1.044976963E1
1.416354008E1,2.434986420E0,-9.632618866E0,-3.449875946E0,1.051751630E1
1.417357708E1,2.947520599E0,-9.467212830E0,-2.358046417E0,1.019197622E1
1.418361508E1,3.116070099E0,-9.194030914E0,-1.169517975E0,9.777927675E0
1.419365308E1,3.060236206E0,-8.831335144E0,-1.712438965E-1,9.348093417E0
1.420369008E1,2.815644836E0,-9.078321533E0,-2.210902405E-1,9.507505383E0
1.421372808E1,2.767594757E0,-8.907377014E0,-6.848258972E-1,9.352536155E0
1.422376608E1,2.999761963E0,-8.952583008E0,-1.341061249E0,9.536548622E0
1.423380308E1,3.477119293E0,-9.156309357E0,-2.302212524E0,1.006123959E1
1.424384108E1,3.913012848E0,-9.537865906E0,-3.362757111E0,1.084392415E1
1.425387908E1,3.939208374E0,-1.006237518E1,-2.811154175E0,1.116563230E1
1.426391608E1,3.594774628E0,-1.000130219E1,-1.549727325E0,1.074011661E1
1.427395408E1,2.372715912E0,-9.681118011E0,-1.917512512E-1,9.969483201E0
1.428399208E1,7.054829407E-1,-9.380992126E0,1.040336609E0,9.464830676E0
1.429402908E1,3.608995056E-1,-9.555529175E0,1.270408173E0,9.646363210E0
1.430406708E1,1.792372742E0,-9.434431000E0,-5.571414185E-1,9.619329233E0
1.431410508E1,2.755320282E0,-8.661438446E0,-2.006726990E0,9.308021219E0
1.432414308E1,2.792742462E0,-8.417745209E0,-3.093317413E0,9.392893988E0
1.433418008E1,2.747386780E0,-8.820258179E0,-2.922821960E0,9.689580830E0
1.434421808E1,2.661764832E0,-9.207203522E0,-2.069596252E0,9.805142394E0
1.435425608E1,2.158810730E0,-9.416767731E0,-1.097667389E0,9.723212019E0
1.436429308E1,2.482587433E0,-9.136400757E0,-1.437011719E-1,9.468775485E0
1.437433108E1,3.184028778E0,-9.158404999E0,3.535647583E-1,9.702547574E0
1.438436946E1,3.300935669E0,-9.120234375E0,-8.592132568E-2,9.699599673E0
1.439440646E1,3.129991150E0,-9.166338501E0,-1.500330048E0,9.801509902E0
1.440444446E1,3.021167450E0,-9.293424225E0,-2.742746429E0,1.014977067E1
1.441448246E1,2.788102112E0,-9.449100494E0,-3.130739594E0,1.033733737E1
1.442451946E1,1.956730957E0,-1.019170624E1,-2.466121674E0,1.066683778E1
1.443455746E1,2.093546448E0,-1.020622604E1,-1.681004333E0,1.055347158E1
1.444459546E1,2.662363586E0,-1.071876022E1,-5.513035583E-1,1.105820674E1
1.445463246E1,3.238964539E0,-1.084554657E1,6.188131714E-1,1.133577088E1
1.446467046E1,4.024680634E0,-9.353000336E0,3.844006348E-1,1.018942753E1
1.447470846E1,4.822671204E0,-8.311765594E0,4.505630493E-2,9.609663621E0
1.448474546E1,2.678529968E0,-1.055440201E1,-3.248245239E-1,1.089382557E1
1.449478346E1,1.212179260E0,-1.008961853E1,-1.422491913E0,1.026125060E1
1.450482146E1,1.569635925E0,-8.870403900E0,-2.330204315E0,9.304712486E0
1.451485846E1,8.976832581E-1,-9.002429352E0,-2.415077820E0,9.363875818E0
1.452489646E1,1.151555328E0,-8.990753632E0,-2.270478516E0,9.344239040E0
1.453493446E1,2.273023224E0,-8.777746582E0,-1.454525299E0,9.183197345E0
1.454497246E1,2.506387939E0,-8.100105743E0,-9.307644653E-1,8.529948186E0
1.455500946E1,4.102668457E0,-7.128775635E0,-1.665137329E0,8.391901623E0
1.456504746E1,3.602259064E0,-7.801626434E0,-1.725312195E0,8.764607667E0
1.457508546E1,2.253114624E0,-9.868977356E0,-1.306782532E0,1.020690551E1
1.458512246E1,2.047292633E0,-1.085662354E1,-8.340655518E-1,1.107941095E1
1.459516046E1,1.807940369E0,-1.139520355E1,-1.076261902E-1,1.153823625E1
1.460519846E1,2.293380890E0,-1.032627640E1,-1.841171265E-1,1.057948388E1
1.461523546E1,3.885320435E0,-8.707243195E0,-1.092428284E0,9.597145330E0
1.462527346E1,4.134851532E0,-8.653055878E0,-1.580114136E0,9.719523337E0
1.463531146E1,3.707939301E0,-8.929980011E0,-4.704716492E-1,9.680635332E0
1.464534846E1,2.928959198E0,-9.119336243E0,-4.616400146E-1,9.589275624E0
1.465538646E1,-3.561094666E-1,-9.562714233E0,-2.206711121E0,9.820483259E0
1.466542446E1,1.644779663E0,-1.015278717E1,-9.660910034E-1,1.033042687E1
1.467546146E1,2.677931213E0,-1.026834686E1,-5.804928589E-1,1.062766366E1
1.468549946E1,2.355801086E0,-9.571994934E0,-1.786385193E0,1.001818635E1
1.469553746E1,2.444267120E0,-8.804540863E0,-2.032174072E0,9.360775236E0
1.470557446E1,1.996548157E0,-8.972641296E0,-1.444945221E0,9.304964431E0
1.471561246E1,1.716929626E0,-9.493258667E0,-3.414399719E-1,9.653309729E0
1.472565046E1,1.545536041E0,-9.968071289E0,9.789642334E-2,1.008765139E1
1.473568846E1,2.423161011E0,-1.082039886E1,-1.739981689E0,1.122409360E1
1.474572546E1,2.719245300E0,-1.058912979E1,-2.263293457E0,1.116451799E1
1.475576346E1,2.666854248E0,-1.021281235E1,-2.627635803E0,1.087741318E1
1.476580146E1,2.860551453E0,-9.318871307E0,-1.915267181E0,9.934403124E0
1.477583846E1,2.346670074E0,-8.552315369E0,-9.451345825E-1,8.918645524E0
1.478587646E1,1.961670685E0,-8.875044250E0,-8.731343079E-1,9.131096640E0
1.479591446E1,2.701132965E0,-9.937983856E0,-1.217118988E0,1.037019870E1
1.480595146E1,3.642974396E0,-9.929900665E0,-1.258433075E0,1.065165919E1
1.481598946E1,4.144431610E0,-1.016581009E1,-1.265917511E0,1.105090744E1
1.482602746E1,2.437980194E0,-9.763297119E0,-2.117346954E0,1.028342726E1
1.483606446E1,1.037642212E0,-8.135432281E0,-3.517385559E0,8.923786245E0
1.484610246E1,1.824705505E0,-8.503217468E0,-2.219734039E0,8.975604531E0
1.485614046E1,1.945354614E0,-8.144712982E0,-1.756896515E0,8.556134612E0
1.486617746E1,2.761756897E0,-7.430248718E0,-1.546883240E0,8.076431448E0
1.487621546E1,3.047063599E0,-7.440277863E0,-2.395019531E-1,8.043611902E0
1.488625346E1,2.500550079E0,-7.914940796E0,3.471281433E-1,8.307799736E0
1.489629046E1,1.324445801E0,-8.579858093E0,6.580316162E-1,8.706384278E0
1.490632846E1,1.288071442E0,-8.630452881E0,1.272354126E-1,8.726971629E0
1.491636646E1,1.839824066E0,-9.802814941E0,-2.917882233E0,1.039202435E1
1.492640446E1,5.981561279E-1,-1.045291306E1,-2.976410522E0,1.088486112E1
1.493644146E1,4.029620361E-1,-9.985884247E0,-2.173031158E0,1.022752790E1
1.494647946E1,1.855691071E0,-9.588909760E0,-2.318977661E0,1.003834833E1
1.495651746E1,2.357297974E0,-1.010234207E1,-1.679657135E0,1.050882568E1
1.496655446E1,2.840044098E0,-9.451645203E0,-1.222657471E0,9.944563279E0
1.497659246E1,3.120710449E0,-9.050329742E0,-1.843266907E0,9.749099191E0
1.498663046E1,3.325634308E0,-8.669072571E0,-2.015408936E0,9.501291279E0
1.499666746E1,3.821403351E0,-9.348060608E0,-3.039728851E0,1.054653081E1
1.500670546E1,3.154540100E0,-8.926836548E0,-1.082249451E0,9.529469968E0
1.501674346E1,2.640209656E0,-8.051456909E0,5.887257385E-1,8.493719055E0
1.502678046E1,2.929857330E0,-7.217391357E0,2.029928741E0,8.049559782E0
1.503681846E1,2.820734253E0,-6.791676636E0,2.871329041E0,7.894804856E0
1.504685646E1,2.791395264E0,-6.535110168E0,2.402204590E0,7.501342501E0
1.505689346E1,1.631457367E0,-7.669600983E0,1.888173523E0,8.065335184E0
1.506693146E1,1.229992218E0,-8.601263580E0,1.274449768E0,8.781733214E0
1.507696946E1,2.063608704E0,-9.156009979E0,1.332229614E0,9.479759246E0
1.508700646E1,3.166365509E0,-1.022059616E1,3.040177917E-1,1.070415262E1
1.509704446E1,4.661306763E0,-1.097981735E1,-9.686357117E-1,1.196755718E1
1.510708246E1,3.148552551E0,-9.730814667E0,-2.652035065E0,1.056576676E1
1.511712046E1,2.503543854E0,-9.843679962E0,-2.843486938E0,1.054756773E1
1.512715746E1,1.978435822E0,-9.706116028E0,-1.897753601E0,1.008584976E1
1.513719546E1,1.268162842E0,-8.884624329E0,-1.082997894E0,9.039782680E0
1.514723346E1,4.029620361E-1,-8.607849884E0,-9.113049316E-1,8.665329463E0
1.515727046E1,-1.088835754E0,-8.917256470E0,-7.602690125E-1,9.015599548E0
1.516730846E1,-2.249222717E0,-9.641749878E0,-5.863307190E-1,9.917969916E0
1.517734646E1,-1.486558685E0,-9.601633301E0,-6.068380737E-1,9.734961285E0
1.518738346E1,-2.850073242E0,-9.225465546E0,-2.407743073E0,9.951349593E0
1.519742146E1,-2.060465240E0,-8.928782501E0,-2.785407715E0,9.577430245E0
1.520745946E1,-8.002359009E-1,-7.562723236E0,-1.375190277E0,7.728279792E0
1.521749646E1,-1.710193634E0,-7.318431244E0,-2.784210205E-2,7.515648563E0
1.522753446E1,-3.090473328E0,-8.598120117E0,9.921368408E-1,9.190377057E0
1.523757246E1,-3.066672821E0,-9.247320099E0,1.642085266E0,9.879972430E0
1.524760946E1,-2.526446228E0,-9.914632416E0,8.584648132E-1,1.026741585E1
1.525764746E1,-2.084415436E0,-1.161150375E1,-8.773255920E-1,1.182968754E1
1.526768546E1,-7.873626709E-1,-1.346465012E1,-2.111958160E0,1.365200022E1
1.527772246E1,5.667214966E-1,-1.512649429E1,-2.580034790E0,1.535540890E1
1.528776046E1,2.886297913E0,-1.548410065E1,-1.498084717E0,1.582189452E1
1.529779846E1,6.050268402E0,-1.468835541E1,-9.571096802E-1,1.591444599E1
1.530783646E1,7.696994019E0,-1.402268967E1,-1.099164276E0,1.603395474E1
1.531787346E1,7.563621368E0,-1.203063217E1,-1.558259583E-1,1.421157136E1
1.532791146E1,6.415359192E0,-1.070154602E1,-4.541555786E-1,1.248543864E1
1.533794946E1,3.321742401E0,-1.158635605E1,-1.602268066E0,1.215914808E1
1.534798646E1,2.412982178E-1,-1.209050766E1,-1.653012543E0,1.220536975E1
1.535802446E1,-1.192869415E0,-1.115046249E1,-6.691085815E-1,1.123403122E1
1.536806246E1,-1.805245972E0,-9.793085175E0,2.369572449E-1,9.960902519E0
1.537809912E1,-2.732268219E0,-8.615933075E0,4.704716492E-1,9.051018503E0
1.538813713E1,-3.164718933E0,-7.619455261E0,9.413923645E-1,8.304081165E0
1.539817513E1,-2.561922455E0,-6.612199860E0,1.306183777E0,7.210461130E0
1.540821213E1,-1.592238922E0,-5.922583923E0,1.964664459E0,6.439885989E0
1.541825013E1,-5.894741821E-1,-6.142476654E0,2.795287170E0,6.774299198E0
1.542828813E1,4.257147217E-1,-6.915169830E0,3.973038025E0,7.986603656E0
1.543832513E1,1.560654602E0,-8.653205566E0,4.692292328E0,9.966504736E0
1.544836313E1,2.388283539E0,-1.089254883E1,4.026177521E0,1.185586874E1
1.545840113E1,3.041674805E0,-1.276246033E1,2.186952209E0,1.330093753E1
1.546843812E1,3.368145905E0,-1.390323807E1,1.827699280E-1,1.430656634E1
1.547847613E1,3.580703888E0,-1.312590454E1,-1.468596039E0,1.368457470E1
1.548851412E1,3.331771545E0,-1.104059097E1,-2.357597351E0,1.177088000E1
1.549855213E1,2.398013306E0,-9.385782166E0,-2.142195282E0,9.921309152E0
1.550858913E1,9.672885132E-1,-9.236542511E0,-4.667294312E-1,9.298774166E0
1.551862713E1,-3.339555359E-1,-9.267528076E0,1.020128632E0,9.329483660E0
1.552866513E1,-8.607101440E-1,-8.513845367E0,2.055226135E0,8.800587444E0
1.553870213E1,-8.797206116E-1,-8.033943329E0,2.407892761E0,8.433036305E0
1.554874013E1,-1.540296936E0,-8.594527588E0,2.107766876E0,8.982265879E0
1.555877813E1,-2.543510742E0,-9.361083527E0,1.696122894E0,9.847647666E0
1.556881513E1,-3.091521149E0,-9.826166382E0,1.260528717E0,1.037786016E1
1.557885312E1,-3.039279785E0,-1.010114456E1,1.154249725E0,1.061143890E1
1.558889113E1,-2.340532837E0,-9.917775879E0,1.204545135E0,1.026115497E1
1.559892812E1,-6.045927429E-1,-9.269623718E0,1.200653229E0,9.366590865E0
1.560896613E1,1.196312256E0,-8.506211243E0,1.522034912E0,8.723725293E0
1.561900413E1,2.259551239E0,-8.613687744E0,1.919757843E0,9.109701341E0
1.562904113E1,2.380050659E0,-9.683213654E0,2.021695862E0,1.017430695E1
1.563907913E1,2.207010498E0,-1.105615860E1,1.609453125E0,1.138858541E1
1.564911713E1,1.842668152E0,-1.186298080E1,1.664239197E0,1.212004256E1
1.565915413E1,1.279838562E0,-1.237341934E1,1.207838287E0,1.249793448E1
1.566919213E1,1.710343323E0,-1.197659454E1,-1.077758789E-1,1.209858284E1
1.567923013E1,2.425406342E0,-9.538314972E0,-1.781894531E0,1.000185965E1
1.568926812E1,1.144819336E0,-8.459807739E0,-2.574047241E0,8.916539547E0
1.569930513E1,-2.237846375E-1,-8.741821289E0,-1.792522430E0,8.926514195E0
1.570934312E1,-8.144563293E-1,-8.935967560E0,-6.903643799E-1,8.999525450E0
1.571938113E1,-1.333726501E0,-9.887089691E0,9.421408081E-1,1.002102780E1
1.572941813E1,-1.488654327E0,-1.093715607E1,2.564018097E0,1.133188702E1
1.573945613E1,-1.535656586E0,-1.199515594E1,3.686833191E0,1.264257673E1
1.574949413E1,-6.777905273E-1,-1.203826630E1,4.531077576E0,1.288060245E1
1.575953113E1,5.635780334E-1,-1.146346161E1,3.899091797E0,1.212152998E1
1.576956913E1,1.117126923E0,-1.134116592E1,2.093247070E0,1.158670360E1
1.577960713E1,2.023043060E0,-1.046952850E1,2.848576355E-1,1.066699931E1
1.578964413E1,2.862796783E0,-9.150621185E0,-1.935475159E0,9.781387304E0
1.579968212E1,2.345771942E0,-9.351503448E0,-2.897973633E0,1.006734890E1
1.580972013E1,1.552571411E0,-9.704170074E0,-2.143243103E0,1.005857275E1
1.581975712E1,1.767674103E0,-9.633666687E0,-8.551716614E-1,9.831760989E0
1.582979513E1,2.010918274E0,-9.617350616E0,5.598358154E-2,9.825495374E0
1.583983313E1,1.806144104E0,-8.622968445E0,1.222956848E0,8.894569398E0
1.584987013E1,1.271905060E0,-6.854695587E0,2.101929016E0,7.281668742E0
1.585990813E1,7.089257812E-1,-6.372997284E0,1.389261017E0,6.561075851E0
1.586994613E1,2.097138977E-1,-6.110143890E0,1.182241516E0,6.227000344E0
1.587998413E1,-8.964857483E-1,-6.980434113E0,9.222322083E-1,7.097933456E0
1.589002113E1,-1.498982849E0,-7.331753540E0,1.234632568E0,7.584581540E0
1.590005913E1,-1.128652954E0,-6.699169006E0,1.701212311E0,7.003345357E0
1.591009712E1,-1.560055847E0,-6.816075897E0,2.096839600E0,7.299958985E0
1.592013413E1,-2.144141235E0,-7.570357361E0,2.272574158E0,8.189764680E0
1.593017212E1,-2.261048126E0,-7.988138580E0,2.291285248E0,8.612356512E0
1.594021013E1,-2.351160736E0,-9.249715118E0,1.684447174E0,9.691364654E0
1.595024713E1,-2.265538788E0,-1.092907288E1,1.126707001E0,1.121814461E1
1.596028513E1,-2.123633881E0,-1.183828217E1,9.035211182E-1,1.206113991E1
1.597032313E1,-1.845063171E0,-1.262295044E1,5.673202515E-1,1.276969021E1
1.598036013E1,-1.064885559E0,-1.252116211E1,1.260379028E-1,1.256699516E1
1.599039813E1,-5.749543762E-1,-1.213676147E1,2.365081787E-2,1.215039551E1
1.600043613E1,-5.059478760E-1,-1.155222702E1,8.128097534E-2,1.156358677E1
1.601047313E1,-6.288423157E-1,-1.064915497E1,2.671943665E-1,1.067105136E1
1.602051112E1,-1.182091827E0,-1.050305878E1,8.714877319E-1,1.060523812E1
1.603054913E1,-8.526269531E-1,-9.667795715E0,1.276246033E0,9.788873819E0
1.604058612E1,-1.817221069E-1,-9.242979126E0,1.805245972E0,9.419373603E0
1.605062413E1,1.543290710E-1,-9.308243408E0,2.197879486E0,9.565452788E0
1.606066213E1,3.011737061E-1,-9.887389069E0,2.317480774E0,1.015981719E1
1.607070013E1,-4.340972900E-3,-1.191387497E1,2.956801300E0,1.227530487E1
1.608073713E1,3.757186890E-1,-1.230546066E1,3.297792206E0,1.274523284E1
1.609077513E1,8.372090149E-1,-1.160536652E1,2.285148010E0,1.185779711E1
1.610081313E1,1.506317596E0,-9.496252441E0,6.045927429E-1,9.633967797E0
1.611085013E1,1.535955963E0,-8.002808075E0,-2.506088562E0,8.525525068E0
1.612088813E1,1.233584747E0,-8.913065186E0,-4.920118561E0,1.025534149E1
1.613092612E1,7.433541870E-1,-1.043016037E1,-4.026925964E0,1.120521992E1
1.614096313E1,-2.893482971E-1,-1.179023209E1,-1.810185699E0,1.193189287E1
1.615100112E1,-4.864883423E-2,-1.200114349E1,-2.701881409E-1,1.200428313E1
1.616103913E1,7.571255493E-1,-1.180340469E1,4.728666687E-1,1.183711132E1
1.617107612E1,1.453327789E0,-1.092997101E1,1.025218048E0,1.107373017E1
1.618111413E1,1.756746826E0,-9.280700684E0,1.197210388E0,9.521075428E0
1.619115213E1,8.481362915E-1,-8.932075653E0,1.234033813E0,9.056718506E0
1.620118913E1,-4.032614136E-1,-9.747280426E0,1.878892822E0,9.934904816E0
1.621122713E1,-8.322692871E-1,-9.447753296E0,2.799628143E0,9.888914614E0
1.622126513E1,-1.489702148E0,-9.798473969E0,3.259471893E0,1.043328623E1
1.623130213E1,-2.484084320E0,-1.085767136E1,3.954027557E0,1.181922316E1
1.624134013E1,-2.828667755E0,-1.133592682E1,4.150868225E0,1.239896387E1
1.625137813E1,-2.554887085E0,-1.125165207E1,3.258573761E0,1.198938803E1
1.626141612E1,-2.144141235E0,-1.077264816E1,2.426753540E0,1.124884095E1
1.627145313E1,-2.415077820E0,-1.036863831E1,1.319955139E0,1.072769979E1
1.628149113E1,-2.986739044E0,-1.107591751E1,-9.072633362E-1,1.150737527E1
1.629152913E1,-2.552941132E0,-1.134445908E1,-3.645519104E0,1.218622459E1
1.630156613E1,-1.456022186E0,-1.034334091E1,-4.144730988E0,1.123759302E1
1.631160413E1,-4.441264343E-1,-7.982151031E0,-2.220632172E0,8.297179679E0
1.632164213E1,-9.310638428E-2,-6.722819824E0,-1.646575928E-1,6.725480452E0
1.633167913E1,4.520599365E-2,-6.941065979E0,1.426383820E0,7.086255098E0
1.634171713E1,-1.451980591E-2,-7.030579834E0,2.269131317E0,7.387707395E0
1.635175512E1,-2.697390747E-1,-7.202572174E0,2.113604736E0,7.511133741E0
1.636179213E1,-5.974076843E-1,-7.593409424E0,1.709145813E0,7.806275810E0
1.637183012E1,-1.060694275E0,-7.781418457E0,1.246308289E0,7.951655796E0
1.638186821E1,-1.466799774E0,-8.325237579E0,2.971321106E-1,8.458686058E0
1.639190521E1,-1.837728424E0,-9.201515350E0,-9.511221313E-1,9.431318244E0
1.640194321E1,-1.911674652E0,-9.969568176E0,-1.688488770E0,1.029066489E1
1.641198121E1,-1.603764954E0,-1.006806335E1,-1.930685120E0,1.037619905E1
1.642201921E1,-1.160237274E0,-1.030352371E1,-1.417552185E0,1.046509463E1
1.643205621E1,-7.870632935E-1,-1.083836151E1,-8.466394043E-1,1.089983244E1
1.644209421E1,-7.340734863E-1,-1.125105331E1,-7.500901794E-1,1.129989822E1
1.645213221E1,-5.319937134E-1,-1.077279785E1,-6.357279968E-1,1.080464442E1
1.646216921E1,-7.289840698E-2,-1.138277939E1,-4.321513367E-1,1.139121309E1
1.647220721E1,8.577163696E-1,-1.153411469E1,-6.029461670E-1,1.158166754E1
1.648224521E1,1.543739777E0,-1.078372513E1,2.110610962E-2,1.089368191E1
1.649228221E1,2.097438354E0,-1.057401123E1,1.667532349E0,1.090823658E1
1.650232021E1,2.377805328E0,-1.067969147E1,2.497107239E0,1.122253592E1
1.651235821E1,2.450703735E0,-1.045919998E1,1.935325470E0,1.091541560E1
1.652239521E1,2.238145752E0,-1.088386688E1,1.212628326E0,1.117758123E1
1.653243321E1,2.361339569E0,-1.132260452E1,8.408015442E-1,1.159673424E1
1.654247121E1,3.076252899E0,-1.088476501E1,6.836283875E-1,1.133176019E1
1.655250821E1,3.510200500E0,-1.040486298E1,5.822891235E-1,1.099644223E1
1.656254621E1,3.799997864E0,-9.934541016E0,6.730004883E-1,1.065776799E1
1.657258421E1,3.823349304E0,-8.747210083E0,1.034498749E0,9.602180575E0
1.658262221E1,3.378324738E0,-7.709717560E0,1.278940430E0,8.514018529E0
1.659265921E1,1.975142670E0,-7.313192139E0,1.368454285E0,7.697833134E0
1.660269721E1,2.062111816E0,-7.694598999E0,2.130070496E0,8.245990493E0
1.661273521E1,2.342179413E0,-8.544531555E0,1.499431915E0,8.985717554E0
1.662277221E1,2.652184753E0,-8.845256195E0,1.576371918E0,9.367902089E0
1.663281021E1,2.507884827E0,-8.703500977E0,1.937421112E0,9.262505931E0
1.664284821E1,1.645079041E0,-9.256750488E0,2.007774811E0,9.613785641E0
1.665288521E1,1.197210388E0,-9.569450226E0,2.006128235E0,9.850494446E0
1.666292321E1,7.890092468E-1,-9.385632477E0,2.226020966E0,9.678212744E0
1.667296121E1,6.843768311E-1,-9.667047272E0,2.313139801E0,9.963472805E0
1.668299821E1,3.450325012E-1,-9.835297394E0,1.973047028E0,1.003718271E1
1.669303621E1,4.629872131E-1,-9.423952789E0,1.383423157E0,9.536199608E0
