"Time (s)","Acceleration x (m/s^2)","Acceleration y (m/s^2)","Acceleration z (m/s^2)","Absolute acceleration (m/s^2)"
2.527208300E-3,-7.813751221E-2,1.365161133E0,1.033376083E1,1.042383727E1
1.248720847E-2,-1.125659180E-1,1.545536041E0,1.005459137E1,1.017330626E1
2.244720841E-2,-1.013392639E-1,1.557810516E0,9.826765137E0,9.949992779E0
3.240720835E-2,2.754272461E-2,1.543440399E0,9.771380310E0,9.892564886E0
4.236620851E-2,1.669029236E-1,1.476978607E0,9.762698364E0,9.875201352E0
5.232620845E-2,2.604583740E-1,1.398541718E0,9.797276459E0,9.900019369E0
6.228620838E-2,3.348536682E-1,1.351988525E0,9.859696655E0,9.957590978E0
7.224520831E-2,4.188290405E-1,1.319955139E0,9.803862762E0,9.901182980E0
8.220520848E-2,5.650749207E-1,1.339414673E0,9.714348907E0,9.822520859E0
9.216520842E-2,5.304968262E-1,1.402433624E0,9.574689331E0,9.691383943E0
1.021252084E-1,3.787124634E-1,1.478176117E0,9.492959290E0,9.614816890E0
1.120842085E-1,1.886077881E-1,1.486259308E0,9.542655945E0,9.659545647E0
1.220442085E-1,7.634124756E-2,1.402433624E0,9.537716217E0,9.640574604E0
1.320042084E-1,1.282832336E-1,1.349892883E0,9.574539642E0,9.670081527E0
1.419635834E-1,2.736309814E-1,1.235830078E0,9.613458710E0,9.696429150E0
1.519225833E-1,3.805087280E-1,1.115330658E0,9.580676880E0,9.652881375E0
1.618825835E-1,5.010081482E-1,1.144370270E0,9.545649719E0,9.627046330E0
1.718425835E-1,6.083349609E-1,1.250200195E0,9.462722168E0,9.564318208E0
1.818015834E-1,6.887178040E-1,1.371148682E0,9.348809052E0,9.473891049E0
1.917615833E-1,6.101312256E-1,1.447639618E0,9.244775391E0,9.377301989E0
2.017215835E-1,3.935316467E-1,1.445244598E0,9.325756989E0,9.445281495E0
2.116815834E-1,2.249821472E-1,1.421144714E0,9.514065399E0,9.622250760E0
2.216405834E-1,1.148112488E-1,1.289568329E0,9.752519531E0,9.838079350E0
2.316005833E-1,6.586303711E-3,1.195264435E0,1.002674927E1,1.009774239E1
2.415605835E-1,-4.041595459E-3,1.164428558E0,1.017748581E1,1.024388245E1
2.515205834E-1,7.933502197E-2,1.203197937E0,1.018377274E1,1.025491133E1
2.614795833E-1,1.974394226E-1,1.353485413E0,1.011521530E1,1.020727611E1
2.714395835E-1,2.377056885E-1,1.497635651E0,1.002794678E1,1.014194918E1
2.813995834E-1,2.622546387E-1,1.583706665E0,9.899813232E0,1.002911792E1
2.913585834E-1,2.341131592E-1,1.681004333E0,9.773176575E0,9.919453861E0
3.013185833E-1,2.151026917E-1,1.725162506E0,9.698631592E0,9.853218235E0
3.112785835E-1,1.643582153E-1,1.685494995E0,9.664502563E0,9.811754012E0
3.212385834E-1,1.673519897E-1,1.603166199E0,9.712702332E0,9.845543923E0
3.311975833E-1,1.990859985E-1,1.487756195E0,9.809251556E0,9.923430346E0
3.411575835E-1,2.880010986E-1,1.348695374E0,9.900561676E0,9.996151527E0
3.511175835E-1,4.580474854E-1,1.250200195E0,9.899214478E0,9.988355986E0
3.610775834E-1,6.179150391E-1,1.240769806E0,9.791438599E0,9.889064594E0
3.710365833E-1,6.843768311E-1,1.337768097E0,9.664203186E0,9.780328131E0
3.809965835E-1,6.959028625E-1,1.417851562E0,9.510472870E0,9.640730162E0
3.909565834E-1,6.036946106E-1,1.490600281E0,9.395362244E0,9.532007557E0
4.009155834E-1,5.035528564E-1,1.557361450E0,9.326056366E0,9.468593745E0
4.108755833E-1,3.763174438E-1,1.564696198E0,9.399703217E0,9.536472596E0
4.208355835E-1,1.302291870E-1,1.479074249E0,9.560917969E0,9.675524414E0
4.307955834E-1,-3.173400879E-2,1.377585297E0,9.784403229E0,9.880956170E0
4.407545833E-1,-5.059478760E-2,1.320104828E0,9.887987823E0,9.975847823E0
4.507145835E-1,2.859054565E-2,1.337468719E0,9.880952454E0,9.971101313E0
4.606745834E-1,1.333726501E-1,1.440903625E0,9.861043854E0,9.966653270E0
4.706345834E-1,2.278262329E-1,1.492246857E0,9.820927277E0,9.936262781E0
4.805935833E-1,2.371069336E-1,1.526525574E0,9.807604980E0,9.928525343E0
4.905535835E-1,2.522254944E-1,1.583706665E0,9.782906342E0,9.913475727E0
5.005135834E-1,2.109114075E-1,1.589394836E0,9.722731476E0,9.854043176E0
5.104725834E-1,1.853146362E-1,1.539997559E0,9.690398712E0,9.813753675E0
5.204325835E-1,1.306782532E-1,1.432970123E0,9.831555176E0,9.936294951E0
5.303925835E-1,4.625381470E-2,1.235530701E0,9.996961212E0,1.007312806E1
5.403525834E-1,4.296066284E-2,1.193318481E0,1.001896545E1,1.008987232E1
5.503115833E-1,1.161584473E-1,1.277593231E0,9.983638916E0,1.006572319E1
5.602715835E-1,2.017803955E-1,1.353784790E0,9.886490936E0,9.980789128E0
5.702315834E-1,3.234773254E-1,1.466350708E0,9.804760895E0,9.919080511E0
5.801915834E-1,4.417314148E-1,1.570983124E0,9.795330505E0,9.930338077E0
5.901505833E-1,4.688250732E-1,1.612446899E0,9.693093109E0,9.837471015E0
6.001105835E-1,4.092489624E-1,1.655557251E0,9.657018127E0,9.806444495E0
6.100705834E-1,2.245330811E-1,1.616638184E0,9.640851746E0,9.778034388E0
6.200295833E-1,7.843688965E-2,1.545086975E0,9.690398712E0,9.813117410E0
6.299895835E-1,1.122665405E-2,1.459165649E0,9.682914276E0,9.792247919E0
6.399495834E-1,-7.723937988E-2,1.412462769E0,9.652228088E0,9.755333109E0
6.499095834E-1,1.206491089E-1,1.612147522E0,9.618697815E0,9.753610793E0
6.598685833E-1,2.508782959E-1,1.625170441E0,9.591454468E0,9.731398547E0
6.698285835E-1,1.059796143E-1,1.407073975E0,9.573491821E0,9.676922781E0
6.797885834E-1,5.035528564E-1,1.573827209E0,9.596843262E0,9.738064395E0
6.897485834E-1,6.631210327E-1,1.704954529E0,9.720785522E0,9.891424095E0
6.997075835E-1,4.828958130E-1,1.809437256E0,9.973909149E0,1.014820749E1
7.096675835E-1,5.369334412E-1,2.586022339E0,1.007794281E1,1.041828874E1
7.196275834E-1,3.376977539E-1,2.025587769E0,1.012030472E1,1.032654895E1
7.295865833E-1,2.195933533E-1,1.002615051E0,9.993668060E0,1.004623609E1
7.395465835E-1,1.910028076E-1,8.985813904E-1,9.780361633E0,9.823411030E0
7.495065834E-1,4.909790039E-2,1.191522217E0,9.657766571E0,9.731114578E0
7.594665834E-1,4.266128540E-2,1.466500397E0,9.713001709E0,9.823178997E0
7.694255833E-1,4.355941772E-2,1.587897949E0,9.699829102E0,9.829038708E0
7.793855835E-1,1.863624573E-1,1.751358032E0,9.655072174E0,9.814397822E0
7.893455834E-1,3.890409851E-1,1.841919708E0,9.746232605E0,9.926382578E0
7.993055834E-1,5.499563599E-1,1.866169281E0,9.778864746E0,9.970518317E0
8.092645835E-1,7.152127075E-1,1.738484802E0,9.977052612E0,1.015260742E1
8.192245835E-1,7.307803345E-1,1.543290710E0,9.971813507E0,1.011695857E1
8.291845834E-1,5.539979553E-1,1.479673004E0,9.964478760E0,1.008896342E1
8.391435833E-1,3.284170532E-1,1.541344757E0,9.865983582E0,9.991057674E0
8.491035835E-1,3.183879089E-1,1.663939819E0,9.793085175E0,9.938540326E0
8.590635834E-1,4.129911804E-1,1.774110718E0,9.701625366E0,9.871148125E0
8.690235834E-1,4.423301697E-1,1.841171265E0,9.689201202E0,9.872496520E0
8.789825833E-1,4.252656555E-1,1.892215118E0,9.735904083E0,9.927192818E0
8.889425835E-1,2.778222656E-1,1.933080139E0,9.678273926E0,9.873346455E0
8.989025834E-1,6.765930176E-2,1.970352631E0,9.588311005E0,9.788900612E0
9.088615833E-1,-2.799179077E-2,2.047592010E0,9.585466919E0,9.801764772E0
9.188215835E-1,-7.065307617E-2,2.257754974E0,9.595795441E0,9.858079910E0
9.287815834E-1,1.901046753E-2,2.419269104E0,9.622290344E0,9.921778866E0
9.387415834E-1,1.411564636E-1,2.301015015E0,9.674382019E0,9.945263330E0
9.487005833E-1,1.076261902E-1,1.998344421E0,9.675729218E0,9.880521227E0
9.586605835E-1,3.592529297E-3,1.615889740E0,9.685908051E0,9.819772264E0
9.686205834E-1,-7.304809570E-2,1.420396271E0,9.616003418E0,9.720616407E0
9.785805834E-1,-2.423460388E-1,1.389261017E0,9.577533417E0,9.680801833E0
9.885395835E-1,-3.412902832E-1,1.415306854E0,9.554631042E0,9.664913187E0
9.984995835E-1,-3.432362366E-1,1.539398804E0,9.523346100E0,9.653065872E0
1.008459583E0,-3.421884155E-1,1.678908691E0,9.564360809E0,9.716626215E0
1.018418583E0,-3.857478333E-1,1.746418304E0,9.723030853E0,9.886157356E0
1.028378583E0,-3.261717224E-1,1.878743134E0,9.888736267E0,1.007090705E1
1.038338583E0,-1.913021851E-1,1.819466400E0,9.926906891E0,1.009408415E1
1.048298583E0,-1.793270874E-1,1.674567719E0,9.933044128E0,1.007480525E1
1.058257583E0,-2.311193848E-1,1.544488220E0,9.906100159E0,1.002844357E1
1.068217583E0,-2.818638611E-1,1.446292419E0,9.834698639E0,9.944471143E0
1.078177583E0,-4.415817261E-1,1.482966156E0,9.850415955E0,9.971202411E0
1.088137583E0,-5.929170227E-1,1.643582153E0,9.791139221E0,9.945819229E0
1.098096584E0,-5.792953491E-1,1.693278809E0,9.652228088E0,9.816734859E0
1.108056583E0,-5.689668274E-1,1.878743134E0,9.577982483E0,9.777072540E0
1.118016583E0,-4.314028931E-1,2.052382050E0,9.614955597E0,9.841023913E0
1.127975583E0,-1.926493835E-1,2.231858826E0,9.690249023E0,9.945814886E0
1.137936333E0,-1.377136230E-1,2.262994080E0,9.640402679E0,9.903407043E0
1.147896333E0,-2.938389587E-1,2.346969452E0,9.586514740E0,9.873999787E0
1.157856333E0,-4.174818420E-1,2.337239685E0,9.622440033E0,9.911020766E0
1.167815333E0,-3.671864319E-1,2.176473999E0,9.643995209E0,9.893356788E0
1.177775333E0,-3.185375977E-1,2.004781036E0,9.758956146E0,9.967840201E0
1.187735333E0,-3.146456909E-1,1.931882629E0,9.823621674E0,1.001672178E1
1.197695334E0,-1.598675537E-1,1.998344421E0,9.803563385E0,1.000643758E1
1.207654333E0,-1.428030396E-1,2.472857666E0,9.528435516E0,9.845125755E0
1.217614333E0,-1.353186035E-1,2.202669525E0,9.241631927E0,9.501464353E0
1.227574333E0,3.772155762E-2,1.941612396E0,9.160949707E0,9.364522473E0
1.237533333E0,5.972579956E-2,1.755399628E0,9.251212006E0,9.416470602E0
1.247493333E0,-7.679031372E-2,1.613195343E0,9.288933563E0,9.428286308E0
1.257453333E0,-2.523751831E-1,1.493743744E0,9.242829437E0,9.366155007E0
1.267413334E0,-2.911445618E-1,1.477727051E0,9.154064026E0,9.277140216E0
1.277372333E0,-3.243754578E-1,1.569635925E0,9.263486481E0,9.401125366E0
1.287332333E0,-6.149212646E-1,1.797761536E0,9.354796600E0,9.545799816E0
1.297292333E0,-8.518785095E-1,2.118394775E0,9.625583496E0,9.892681692E0
1.307252333E0,-9.416917419E-1,2.487826538E0,9.831106110E0,1.018463114E1
1.317211333E0,-8.271798706E-1,2.922672272E0,9.972861328E0,1.042517160E1
1.327171333E0,-7.821235657E-1,2.424957275E0,1.043614792E1,1.074268674E1
1.337131333E0,-1.495839386E0,1.433419189E0,9.889185333E0,1.010387117E1
1.347090333E0,-1.594035187E0,9.336085510E-1,9.238937531E0,9.421811917E0
1.357050333E0,-1.269360352E0,1.133442993E0,9.157506866E0,9.314284767E0
1.367010333E0,-1.025816803E0,1.290017395E0,9.254654846E0,9.400270279E0
1.376970334E0,-7.396119690E-1,1.586401062E0,9.525292053E0,9.684775831E0
1.386929333E0,-1.824705505E-1,1.883682861E0,9.455537109E0,9.643066870E0
1.396889333E0,6.631210327E-1,1.877096558E0,9.885293427E0,1.008376156E1
1.406849333E0,3.620970154E-1,1.516197052E0,9.976154480E0,1.009720882E1
1.416808333E0,1.366658020E-1,1.374441833E0,9.990075531E0,1.008510669E1
1.426768333E0,-6.870712280E-2,1.545086975E0,9.911339264E0,1.003128409E1
1.436728333E0,-2.525248718E-1,1.725312195E0,9.812694397E0,9.966415720E0
1.446688333E0,-3.942800903E-1,1.984123993E0,9.733059998E0,9.941059386E0
1.456647333E0,-4.837939453E-1,2.301464081E0,9.619446259E0,9.902754153E0
1.466607333E0,-4.830455017E-1,2.368374939E0,9.649084625E0,9.947229107E0
1.476567333E0,-4.902305603E-1,2.143542480E0,9.721384277E0,9.966966070E0
1.486526333E0,-4.510121155E-1,1.651216278E0,9.681267700E0,9.831422654E0
1.496486333E0,-3.135978699E-1,1.230141907E0,9.758806458E0,9.841031257E0
1.506446333E0,-2.667453003E-1,1.016985168E0,9.910141754E0,9.965757446E0
1.516406333E0,-2.736309814E-1,1.119372253E0,9.979447632E0,1.004575747E1
1.526365333E0,-3.408412170E-1,1.289119263E0,1.009425888E1,1.018194793E1
1.536325333E0,-4.623884583E-1,1.400787048E0,1.013826736E1,1.024502184E1
1.546285333E0,-5.480104065E-1,1.506616974E0,1.004276596E1,1.016992420E1
1.556245334E0,-5.427713013E-1,1.556613007E0,9.981393585E0,1.011661320E1
1.566204333E0,-4.430786133E-1,1.616338806E0,9.983638916E0,1.012333521E1
1.576164333E0,-2.570155334E-1,1.524579620E0,9.878856812E0,9.999110556E0
1.586124333E0,-1.324745178E-1,1.342857513E0,9.701026611E0,9.794423572E0
1.596083333E0,-1.666035461E-1,1.248703308E0,9.430239716E0,9.514012707E0
1.606043333E0,-2.535726929E-1,1.228944397E0,9.183253326E0,9.268589164E0
1.616003333E0,-4.890330505E-1,1.323547668E0,9.113498383E0,9.222081355E0
1.625963333E0,-6.882687378E-1,1.456171875E0,9.201665039E0,9.341562497E0
1.635922333E0,-8.330177307E-1,1.490899658E0,9.295220490E0,9.450810774E0
1.645882333E0,-9.601034546E-1,1.470841370E0,9.349108429E0,9.512675827E0
1.655842333E0,-1.035845947E0,1.457818451E0,9.377100220E0,9.546110202E0
1.665801333E0,-1.018931122E0,1.501826935E0,9.356742554E0,9.531124592E0
1.675761333E0,-9.165440369E-1,1.549278259E0,9.291777649E0,9.464536332E0
1.685721333E0,-8.177494812E-1,1.605112152E0,9.149573364E0,9.325223428E0
1.695681333E0,-7.075785828E-1,1.693578186E0,8.826245728E0,9.015070059E0
1.705640333E0,-5.851332092E-1,1.722617798E0,8.502618713E0,8.695074349E0
1.715600333E0,-3.757186890E-1,1.714833984E0,8.225395203E0,8.410644825E0
1.725560333E0,-1.803749084E-1,1.600172424E0,8.057145081E0,8.216487920E0
1.735519334E0,-1.401086426E-1,1.467697906E0,7.994425507E0,8.129243923E0
1.745479333E0,-4.144880676E-1,1.339564362E0,8.008047180E0,8.129886388E0
1.755439333E0,-7.943980408E-1,1.233435059E0,8.129444733E0,8.260768848E0
1.765399333E0,-9.964778137E-1,1.173559570E0,8.138875122E0,8.283205802E0
1.775358333E0,-1.081950073E0,1.092128906E0,8.052804108E0,8.198232462E0
1.785318333E0,-1.144669647E0,8.993298340E-1,8.006699982E0,8.137954740E0
1.795278333E0,-1.245859222E0,6.640191650E-1,8.089777222E0,8.212038855E0
1.805237334E0,-1.250050507E0,4.348457336E-1,8.100704498E0,8.208113696E0
1.815197333E0,-1.010997620E0,1.435514832E-1,8.150101776E0,8.213822629E0
1.825157333E0,-8.655001831E-1,-2.586621094E-1,8.117020569E0,8.167130437E0
1.835117333E0,-9.301657104E-1,-5.077441406E-1,8.158783722E0,8.227318165E0
1.845076333E0,-1.127754822E0,-6.589297485E-1,8.393046570E0,8.494071466E0
1.855036333E0,-1.540147247E0,-7.074288940E-1,8.515791321E0,8.682811238E0
1.864996333E0,-1.543889465E0,-6.616241455E-1,8.730744324E0,8.890851345E0
1.874955333E0,-1.481319580E0,-7.032376099E-1,9.104367371E0,9.250857044E0
1.884915333E0,-1.547931061E0,-1.059347076E0,9.492360535E0,9.675909018E0
1.894875333E0,-1.879192200E0,-1.523980865E0,9.723330231E0,1.001983192E1
1.904835333E0,-2.312391357E0,-1.891167297E0,9.791139221E0,1.023670234E1
1.914794334E0,-2.404599609E0,-2.005978546E0,9.618847504E0,1.011574399E1
1.924754333E0,-2.176773376E0,-1.820663910E0,9.270072784E0,9.694710353E0
1.934714333E0,-1.951491852E0,-1.421893158E0,8.799900513E0,9.125149294E0
1.944673333E0,-1.792971497E0,-8.674461365E-1,8.385412445E0,8.618720988E0
1.954633333E0,-1.606309662E0,-3.989204407E-1,8.327931976E0,8.490807927E0
1.964593333E0,-1.432521057E0,-2.589614868E-1,8.710236969E0,8.831047825E0
1.974553333E0,-1.549128571E0,-7.765850830E-1,9.134305115E0,9.297226127E0
1.984512333E0,-2.014959869E0,-1.408121796E0,9.383237457E0,9.699897703E0
1.994472333E0,-2.624492340E0,-1.545386353E0,9.592352600E0,1.006426388E1
2.004432333E0,-3.389252014E0,-1.273102570E0,9.458231506E0,1.012748550E1
2.014391333E0,-4.147874451E0,-6.132746887E-1,8.960366821E0,9.892883395E0
2.024351334E0,-4.607269135E0,4.294569397E-1,8.590935059E0,9.757844399E0
2.034311333E0,-4.574038239E0,1.154848480E0,8.393795013E0,9.628670497E0
2.044271333E0,-4.287384338E0,1.237476654E0,8.232430573E0,9.364076359E0
2.054230333E0,-3.839665375E0,9.440867615E-1,8.228688354E0,9.129383442E0
2.064190333E0,-3.174748077E0,4.378395081E-1,8.393046570E0,8.984094808E0
2.074150333E0,-2.619702301E0,-9.131011963E-2,8.486452332E0,8.882063435E0
2.084109333E0,-2.104773102E0,-4.426295471E-1,8.562045135E0,8.828057976E0
2.094069334E0,-2.107617188E0,-5.066963196E-1,8.525072021E0,8.796342668E0
2.104029333E0,-2.634521484E0,-2.302212524E-1,8.391699371E0,8.798540994E0
2.113989333E0,-3.166814575E0,4.989125061E-1,8.391100616E0,8.982660953E0
2.123948333E0,-3.567231903E0,1.446142731E0,8.844657440E0,9.645954462E0
2.133908333E0,-3.721411285E0,1.821861420E0,9.392667847E0,1.026597732E1
2.143867583E0,-3.964954834E0,1.327140198E0,9.493707733E0,1.037365193E1
2.153826583E0,-4.015250244E0,5.387297058E-1,9.333840179E0,1.017511851E1
2.163786583E0,-3.812721405E0,-1.537303162E-1,9.152118073E0,9.915732083E0
2.173746584E0,-3.980372772E0,-6.164181519E-1,8.872499542E0,9.743951297E0
2.183706583E0,-4.186045074E0,-6.397695923E-1,8.577163696E0,9.565564049E0
2.193665583E0,-4.267026672E0,-2.818638611E-1,8.496780853E0,9.512215763E0
2.203625583E0,-4.194577332E0,2.116598511E-1,8.612340546E0,9.581841606E0
2.213585583E0,-4.045038300E0,5.556445312E-1,8.885821838E0,9.779003294E0
2.223544583E0,-3.846401367E0,7.322772217E-1,9.281748505E0,1.007382195E1
2.233504583E0,-3.814817047E0,5.804928589E-1,9.707463226E0,1.044627414E1
2.243464583E0,-3.774999847E0,1.134640503E-1,9.947713623E0,1.064051241E1
2.253424583E0,-4.004622345E0,-3.993695068E-1,9.915680237E0,1.070127145E1
2.263383583E0,-4.480482788E0,-7.171586609E-1,9.721084900E0,1.072793243E1
2.273343583E0,-4.723876648E0,-6.391708374E-1,9.400451660E0,1.054002094E1
2.283303584E0,-4.764292603E0,-3.652404785E-1,9.245523834E0,1.040728570E1
2.293262583E0,-4.813390503E0,-6.182144165E-2,9.148226166E0,1.033743643E1
2.303222583E0,-4.797523499E0,2.329156494E-1,8.982520752E0,1.018607680E1
2.313182583E0,-4.811145172E0,4.155358887E-1,8.994346161E0,1.020872425E1
2.323142583E0,-4.952151947E0,2.526745605E-1,9.502090302E0,1.071808628E1
2.333101583E0,-5.200335846E0,-3.137475586E-1,1.003602997E1,1.130768889E1
2.343061583E0,-5.386548615E0,-9.750723267E-1,1.029289581E1,1.165801768E1
2.353021584E0,-5.445675659E0,-1.423988800E0,1.041968216E1,1.184284188E1
2.362980583E0,-5.441484375E0,-1.445843353E0,1.057236465E1,1.197810960E1
2.372940583E0,-5.587430878E0,-1.166673889E0,1.078701828E1,1.220410895E1
2.382900583E0,-5.989943848E0,-9.982740784E-1,1.082069824E1,1.240820248E1
2.392860583E0,-6.442602539E0,-9.265731812E-1,1.068702621E1,1.251312090E1
2.402819583E0,-6.610852661E0,-8.000862122E-1,1.038869659E1,1.233971344E1
2.412779583E0,-6.547234955E0,-7.328759766E-1,1.005803421E1,1.202362029E1
2.422739583E0,-6.375991058E0,-8.020321655E-1,9.724827118E0,1.165627642E1
2.432698583E0,-6.136638794E0,-9.771679688E-1,9.407187653E0,1.127423489E1
2.442658583E0,-5.774990845E0,-1.100661163E0,9.137598267E0,1.086543494E1
2.452618583E0,-5.291047211E0,-1.059496765E0,8.969048767E0,1.046716532E1
2.462578584E0,-4.857548676E0,-8.906478882E-1,8.967102814E0,1.023708775E1
2.472537583E0,-4.624782715E0,-7.533833313E-1,9.023535461E0,1.016761495E1
2.482497583E0,-4.720882874E0,-6.830296326E-1,9.063652039E0,1.024221914E1
2.492457583E0,-4.924609222E0,-7.623646545E-1,9.086704102E0,1.036345344E1
2.502416583E0,-5.198689270E0,-9.095086670E-1,9.070388031E0,1.049407048E1
2.512376583E0,-5.407804413E0,-1.024768982E0,9.050030365E0,1.059233448E1
2.522336583E0,-5.369035034E0,-1.115031281E0,9.103319550E0,1.062733545E1
2.532296584E0,-5.140759735E0,-1.238374786E0,9.157955933E0,1.057492977E1
2.542255583E0,-4.817881165E0,-1.338067474E0,9.159303131E0,1.043528808E1
2.552215583E0,-4.470303955E0,-1.307081909E0,9.250014496E0,1.035639169E1
2.562175583E0,-4.241280212E0,-1.240320740E0,9.352251892E0,1.034366805E1
2.572134583E0,-4.308191071E0,-1.195863190E0,9.447154541E0,1.045176196E1
2.582094583E0,-4.438270569E0,-1.140178986E0,9.504934387E0,1.055187336E1
2.592054583E0,-4.476740570E0,-1.159488831E0,9.621990967E0,1.067559510E1
2.602014583E0,-4.616100769E0,-1.201102295E0,9.640402679E0,1.075585407E1
2.611973583E0,-4.614753571E0,-1.161434784E0,9.535171509E0,1.065665881E1
2.621933583E0,-4.494553528E0,-1.032852173E0,9.388177185E0,1.045971634E1
2.631893583E0,-4.267775116E0,-8.842112732E-1,9.158554688E0,1.014272439E1
2.641852584E0,-3.986360321E0,-7.729925537E-1,9.023685150E0,9.895225100E0
2.651812583E0,-3.821403351E0,-6.737489319E-1,9.059161377E0,9.855225317E0
2.661772583E0,-3.720962219E0,-7.083270264E-1,9.215137024E0,9.963234283E0
2.671732583E0,-3.782184906E0,-7.999365234E-1,9.486522675E0,1.024397060E1
2.681691583E0,-3.873045959E0,-8.816665649E-1,9.783056030E0,1.055869340E1
2.691651583E0,-3.898792419E0,-9.710307312E-1,1.006521927E1,1.083753302E1
2.701611583E0,-3.866908722E0,-1.056802368E0,1.023676254E1,1.099368554E1
2.711570584E0,-3.783532104E0,-1.074615326E0,1.033735336E1,1.106032494E1
2.721530583E0,-3.502716064E0,-1.032852173E0,1.026894562E1,1.089894708E1
2.731490583E0,-3.120860138E0,-8.945397949E-1,1.009021729E1,1.059964407E1
2.741450583E0,-2.747237091E0,-7.092251587E-1,9.827513580E0,1.022889706E1
2.751409583E0,-2.415227509E0,-4.984634399E-1,9.606872406E0,9.918356071E0
2.761369583E0,-2.091899872E0,-3.131488037E-1,9.523196411E0,9.755274324E0
2.771329583E0,-1.852248230E0,-2.109114075E-1,9.495054932E0,9.676330672E0
2.781288583E0,-1.809736633E0,-1.315763855E-1,9.576635284E0,9.747020180E0
2.791248583E0,-2.073488159E0,4.206253052E-2,9.642198944E0,9.862713769E0
2.801208583E0,-2.400558014E0,4.331991577E-1,9.541308746E0,9.848193382E0
2.811168583E0,-2.571502533E0,5.219645691E-1,9.509125671E0,9.864509279E0
2.821127584E0,-2.636617126E0,2.863545227E-1,9.271419983E0,9.643286643E0
2.831087583E0,-2.500250702E0,1.034349060E-1,9.004674683E0,9.345914535E0
2.841047583E0,-2.161355438E0,6.466552734E-2,8.853489075E0,9.113720851E0
2.851006583E0,-1.732197876E0,1.306782532E-1,8.773854675E0,8.944166375E0
2.860966583E0,-1.242266693E0,3.194357300E-1,8.771459656E0,8.864748740E0
2.870926583E0,-8.385562134E-1,5.057981873E-1,8.839268646E0,8.893350242E0
2.880886583E0,-6.978488159E-1,5.596861267E-1,8.875493317E0,8.920460927E0
2.890845584E0,-8.885522461E-1,4.584965515E-1,8.904083862E0,8.960047634E0
2.900805583E0,-1.266516266E0,2.956352234E-1,8.907526703E0,9.001971762E0
2.910765583E0,-1.643881531E0,1.868115234E-1,8.980724487E0,9.131848518E0
2.920724583E0,-2.026934967E0,8.906478882E-2,9.095535736E0,9.319075503E0
2.930684583E0,-2.237247620E0,-4.505630493E-2,9.099577332E0,9.370678449E0
2.940644583E0,-2.336042175E0,-1.562750244E-1,9.065298615E0,9.362753543E0
2.950604583E0,-2.236798553E0,-1.740879822E-1,8.982221375E0,9.258178828E0
2.960563583E0,-2.112257538E0,-1.423539734E-1,8.885672150E0,9.134389203E0
2.970523583E0,-2.085014191E0,-1.700463867E-1,8.831035767E0,9.075427960E0
2.980483583E0,-2.120490417E0,-2.201921082E-1,8.862320709E0,9.115135354E0
2.990443583E0,-2.457888794E0,-2.951861572E-1,8.993148651E0,9.327651090E0
3.000402584E0,-2.868035889E0,-2.933898926E-1,9.126820679E0,9.571340721E0
3.010362583E0,-3.101550293E0,-1.574725342E-1,9.296567688E0,9.801560212E0
3.020322583E0,-3.278182983E0,-2.888992310E-2,9.480086060E0,1.003091970E1
3.030281583E0,-3.367247772E0,4.086502075E-2,9.585616608E0,1.015992486E1
3.040241583E0,-3.281775513E0,3.577560425E-2,9.560768280E0,1.010839357E1
3.050201583E0,-3.090772705E0,-1.496887207E-4,9.425150299E0,9.918988562E0
3.060161583E0,-2.781815186E0,-3.847000122E-2,9.248068542E0,9.657471068E0
3.070120584E0,-2.404150543E0,-8.083190918E-3,9.115294647E0,9.427014463E0
3.080080583E0,-2.087109833E0,3.353027344E-2,9.049730988E0,9.287345298E0
3.090040583E0,-1.996997223E0,4.625381470E-2,9.120833130E0,9.337008852E0
3.099999583E0,-2.041305084E0,2.679428101E-2,9.251062317E0,9.473637019E0
3.109959583E0,-2.052980804E0,7.484436035E-3,9.374555511E0,9.596722213E0
3.119919583E0,-1.998943176E0,-3.218307495E-2,9.438771973E0,9.648172155E0
3.129879583E0,-1.819167023E0,-6.436614990E-2,9.455836487E0,9.629452493E0
3.139838708E0,-1.576671295E0,-1.634600830E-1,9.368567963E0,9.501719699E0
3.149798709E0,-1.345252533E0,-2.546205139E-1,9.295519867E0,9.395808937E0
3.159758708E0,-1.082099762E0,-3.411405945E-1,9.280401306E0,9.349500800E0
3.169717708E0,-8.684939575E-1,-4.590953064E-1,9.299860840E0,9.351602103E0
3.179677708E0,-8.265811157E-1,-5.568420410E-1,9.333690491E0,9.386750640E0
3.189637708E0,-8.419990540E-1,-5.448669434E-1,9.461075592E0,9.514083968E0
3.199597708E0,-9.656419373E-1,-4.474195862E-1,9.560169525E0,9.619225020E0
3.209556708E0,-1.140328674E0,-1.930984497E-1,9.585317230E0,9.654840387E0
3.219516709E0,-1.337019653E0,7.529342651E-2,9.633067932E0,9.725702465E0
3.229476708E0,-1.475182343E0,2.074685669E-1,9.643995209E0,9.758373314E0
3.239435708E0,-1.549877014E0,1.448986816E-1,9.569001160E0,9.694787134E0
3.249395708E0,-1.456321564E0,1.960922241E-2,9.371711426E0,9.484209617E0
3.259355708E0,-1.107397156E0,-5.583389282E-2,9.223369904E0,9.289779236E0
3.269315708E0,-7.482939148E-1,-4.760101318E-2,9.142687683E0,9.173382566E0
3.279274708E0,-4.775070190E-1,-2.424957275E-2,9.155261536E0,9.167737713E0
3.289234708E0,-5.104385376E-1,-1.317260742E-2,9.244326324E0,9.258417263E0
3.299194708E0,-8.205935669E-1,3.562591553E-2,9.487271118E0,9.522759909E0
3.309153708E0,-1.044078827E0,1.228944397E-1,9.843230896E0,9.899211994E0
3.319113708E0,-1.144220581E0,1.058299255E-1,1.013557297E1,1.020050391E1
3.329073709E0,-1.274749146E0,-9.535171509E-2,1.030187714E1,1.038088387E1
3.339033708E0,-1.325792999E0,-3.713777161E-1,1.024454636E1,1.033665219E1
3.348992708E0,-1.187330933E0,-5.412744141E-1,1.014245865E1,1.022605497E1
3.358952708E0,-1.009800110E0,-6.140231323E-1,1.004052063E1,1.010983557E1
3.368912708E0,-8.681945801E-1,-6.731501770E-1,9.891430664E0,9.952250679E0
3.378871708E0,-9.404942322E-1,-7.240443420E-1,9.796977081E0,9.868613355E0
3.388831708E0,-1.017583923E0,-7.345225525E-1,9.719588013E0,9.800275076E0
3.398791709E0,-9.343569946E-1,-7.053332520E-1,9.608069916E0,9.679128344E0
3.408750708E0,-6.765930176E-1,-8.463400269E-1,9.540709991E0,9.602042319E0
3.418710708E0,-9.624984741E-2,-2.736309814E-1,9.692344666E0,9.696684127E0
3.428670708E0,-1.755848694E-1,-2.737806702E-1,9.671837311E0,9.677304525E0
3.438630708E0,-4.418811035E-1,-7.595205688E-1,9.696535950E0,9.736269297E0
3.448589708E0,-4.478686523E-1,-1.113235016E0,9.725276184E0,9.799024206E0
3.458549708E0,-3.640429688E-1,-1.410816193E0,9.762398987E0,9.870530056E0
3.468509708E0,-5.822891235E-1,-1.648072815E0,9.670490112E0,9.827185947E0
3.478468708E0,-1.008901978E0,-1.826801147E0,9.437424774E0,9.665405941E0
3.488428708E0,-1.441203003E0,-2.004331970E0,9.295519867E0,9.617749339E0
3.498388708E0,-1.895657959E0,-2.248474274E0,9.143136749E0,9.604483603E0
3.508348709E0,-2.227368164E0,-2.322420502E0,8.963360596E0,9.523478309E0
3.518307708E0,-2.383044434E0,-2.343227234E0,8.801996155E0,9.415134144E0
3.528267708E0,-2.445764008E0,-2.365381165E0,8.570876770E0,9.221535569E0
3.538227708E0,-2.189796295E0,-2.393522644E0,8.258925476E0,8.873218609E0
3.548186708E0,-1.687440948E0,-2.419269104E0,7.999963989E0,8.526414474E0
3.558146708E0,-1.976489868E0,-2.314636688E0,7.818690948E0,8.390231424E0
3.568106708E0,-2.521506500E0,-2.882256317E0,7.580386505E0,8.492800249E0
3.578065709E0,-3.153043213E0,-3.554508362E0,8.072113953E0,9.366708860E0
3.588025708E0,-3.285368042E0,-3.699107666E0,8.487051086E0,9.823801547E0
3.597985708E0,-3.330574036E0,-3.688330078E0,8.670719147E0,9.993891769E0
3.607945708E0,-3.574267273E0,-3.608396301E0,8.633446655E0,1.001660180E1
3.617904708E0,-3.295097809E0,-3.580703888E0,8.471333771E0,9.769473157E0
3.627864708E0,-2.969375153E0,-3.628454590E0,8.362210693E0,9.586941076E0
3.637824708E0,-2.790497131E0,-3.706592102E0,8.343948669E0,9.547103155E0
3.647783708E0,-2.505639496E0,-3.861819305E0,8.453520813E0,9.625689158E0
3.657743708E0,-2.170187073E0,-3.973187714E0,8.607849884E0,9.725791082E0
3.667703708E0,-1.975741425E0,-4.148772583E0,8.770561523E0,9.901445226E0
3.677663708E0,-1.645977173E0,-4.381089478E0,8.833580475E0,9.996765971E0
3.687622709E0,-1.237925720E0,-4.424199829E0,8.645870819E0,9.790663228E0
3.697582708E0,-1.102158051E0,-4.289330292E0,8.427774353E0,9.520529779E0
3.707542708E0,-8.550219727E-1,-4.072581024E0,8.038134613E0,9.051441147E0
3.717501708E0,-5.944139099E-1,-3.757635956E0,7.621999969E0,8.518687658E0
3.727461708E0,-5.974076843E-1,-3.695515137E0,7.168443146E0,8.087045517E0
3.737421708E0,-7.602690125E-1,-3.907474365E0,6.950945435E0,8.010119058E0
3.747380708E0,-9.621990967E-1,-4.303700409E0,7.121440887E0,8.376310920E0
3.757340709E0,-1.331481171E0,-4.839885406E0,7.536078644E0,9.054822703E0
3.767300708E0,-1.472038879E0,-5.271288300E0,8.055797882E0,9.739058390E0
3.777260708E0,-1.136287079E0,-5.439388733E0,8.362061005E0,1.004002801E1
3.787219708E0,-8.502319336E-1,-5.481002197E0,8.124055939E0,9.836898105E0
3.797179708E0,-6.979985046E-1,-5.491031342E0,7.513924713E0,9.332614409E0
3.807139708E0,-4.529580688E-1,-5.295388184E0,6.827901306E0,8.652545479E0
3.817098708E0,-5.629792786E-1,-4.998256073E0,6.410120087E0,8.147953667E0
3.827058708E0,-1.019679565E0,-4.876409454E0,6.084846497E0,7.864125665E0
3.837018708E0,-1.739382935E0,-5.462291107E0,6.203100586E0,8.446332578E0
3.846977708E0,-1.998793488E0,-6.160439301E0,6.624624023E0,9.264547006E0
3.856937708E0,-2.104024658E0,-6.896309052E0,7.044949951E0,1.008054156E1
3.866897709E0,-1.975142670E0,-7.695796509E0,7.372468872E0,1.083880850E1
3.876856708E0,-2.085463257E0,-8.145311737E0,7.490872650E0,1.126092507E1
3.886816708E0,-2.327659607E0,-8.191415863E0,7.453001404E0,1.131655968E1
3.896776708E0,-2.016007690E0,-7.936795349E0,7.345375214E0,1.100052474E1
3.906736708E0,-1.363065491E0,-7.906558228E0,6.897356873E0,1.058041315E1
3.916695708E0,6.451583862E-2,-7.956703949E0,5.914800110E0,9.914542872E0
3.926655708E0,3.095562744E-1,-9.554181976E0,7.982450409E0,1.245382403E1
3.936615709E0,9.369017029E-1,-1.080557968E1,1.084464844E1,1.533769007E1
3.946574708E0,8.848100281E-1,-1.192046127E1,1.168604874E1,1.671657922E1
3.956534708E0,1.327289886E0,-1.171359146E1,1.064511337E1,1.588358782E1
3.966494708E0,2.851570129E0,-1.001627106E1,9.710307312E0,1.423893276E1
3.976453708E0,2.162103882E0,-9.275910645E0,8.903335419E0,1.303789067E1
3.986413708E0,1.695673828E0,-8.272397461E0,7.655979309E0,1.139832833E1
3.996373708E0,1.535357208E0,-6.845115509E0,6.578070831E0,9.616857280E0
4.006333708E0,6.379733276E-1,-6.360872498E0,5.864504700E0,8.675259320E0
4.016292708E0,-8.274792480E-1,-5.830525360E0,4.878205719E0,7.647001956E0
4.026252708E0,-1.129850464E0,-6.172713776E0,4.340972900E0,7.630399934E0
4.036212708E0,-1.942809906E0,-8.199798431E0,5.401517487E0,1.000937540E1
4.046171708E0,-9.334588623E-1,-1.023706192E1,6.815926208E0,1.233392202E1
4.056131708E0,-7.096742249E-1,-1.216205887E1,7.297774200E0,1.420129648E1
4.066091708E0,4.924758911E-2,-1.145298340E1,7.309449921E0,1.358680655E1
4.076050708E0,3.152444458E-1,-9.692045288E0,6.321055298E0,1.157544215E1
4.086010708E0,-1.053658905E0,-8.440647583E0,4.470154266E0,9.609214738E0
4.095970708E0,-2.425556030E0,-7.353907471E0,3.075055389E0,8.331821097E0
4.105930708E0,-3.744463348E0,-5.970933380E0,2.452649689E0,7.462475574E0
4.115889709E0,-4.017345886E0,-4.969964905E0,2.516716461E0,6.868295339E0
4.125849708E0,-3.949387207E0,-5.461392975E0,3.316203918E0,7.511436678E0
4.135809708E0,-2.112706604E0,-7.332352295E0,3.713627472E0,8.486338926E0
4.145769333E0,-6.262976074E-1,-9.017697601E0,4.739593964E0,1.020660912E1
4.155729333E0,1.692979431E-1,-1.025143204E1,5.774092712E0,1.176693109E1
4.165689333E0,8.184979248E-1,-1.171074738E1,6.400839386E0,1.337094940E1
4.175648334E0,9.548643494E-1,-1.254406448E1,6.713239746E0,1.425948483E1
4.185608333E0,-3.592529297E-3,-1.187031555E1,6.928192749E0,1.374424458E1
4.195568333E0,-2.646197205E0,-9.837393036E0,5.816304932E0,1.173056113E1
4.205527333E0,-1.885329437E0,-9.010213165E0,4.141138458E0,1.009393066E1
4.215487333E0,-3.369493103E0,-8.145910492E0,3.195105743E0,9.376462138E0
4.225447333E0,-4.189038849E0,-6.961872711E0,3.229833527E0,8.743428546E0
4.235407333E0,-8.452922058E-1,-7.899822235E0,2.728675690E0,8.400439350E0
4.245366334E0,-1.852697296E0,-8.126301270E0,1.291963348E0,8.434360016E0
4.255326333E0,-3.344794464E0,-6.266269226E0,1.477427673E0,7.255106653E0
4.265286333E0,-7.991880798E-1,-6.171366577E0,1.723665619E0,6.457204518E0
4.275245333E0,-8.458909607E-1,-6.328090668E0,1.991309052E0,6.687718202E0
4.285205333E0,-1.665736084E0,-7.022945709E0,2.938688965E0,7.793095404E0
4.295165333E0,-2.477797394E0,-9.023086395E0,3.909570007E0,1.014102094E1
4.305124333E0,-1.975891113E0,-1.128697861E1,5.794001312E0,1.284019015E1
4.315084333E0,-1.193318481E0,-1.240784775E1,5.935157776E0,1.380596945E1
4.325044333E0,-1.471440125E0,-1.263806900E1,5.949378204E0,1.404567639E1
4.335003333E0,-2.357148285E0,-1.185429886E1,4.196074219E0,1.279404503E1
4.344963333E0,-1.314865723E0,-9.996811523E0,2.025737457E0,1.028439229E1
4.354923334E0,-8.349636841E-1,-8.901688843E0,2.312690735E-1,8.943752791E0
4.364883333E0,-1.411714325E0,-6.829248505E0,-1.408421173E0,7.114437622E0
4.374842333E0,-2.434986420E0,-5.864055634E0,-1.132694550E0,6.449752265E0
4.384802333E0,-3.224744110E0,-6.351142731E0,-4.385879517E-2,7.123054973E0
4.394762333E0,-3.696413269E0,-6.841972046E0,8.773255920E-1,7.825966568E0
4.404721333E0,-3.437152405E0,-7.129973145E0,1.647024994E0,8.084752626E0
4.414681333E0,-2.848426666E0,-7.663613434E0,2.018402710E0,8.421309568E0
4.424641334E0,-2.365830231E0,-8.702752533E0,2.707419891E0,9.416218816E0
4.434600333E0,-1.284329224E0,-1.025472519E1,3.239263916E0,1.083059190E1
4.444560333E0,-2.606080627E-1,-1.139146133E1,3.324586487E0,1.186954857E1
4.454520333E0,-9.520202637E-1,-6.582112427E0,1.950144653E0,6.930628453E0
4.464479333E0,-3.890409851E-1,-9.242679749E0,7.319778442E-1,9.279777658E0
4.474439333E0,-1.945953369E-2,-1.053359528E1,2.883004761E-1,1.053755784E1
4.484399333E0,-8.913963318E-1,-1.057700500E1,3.046165466E-1,1.061887063E1
4.494359333E0,-1.014440460E0,-1.102487366E1,4.517605591E-1,1.108065956E1
4.504318333E0,-1.000369720E0,-1.074345886E1,8.454418945E-1,1.082300420E1
4.514278333E0,-1.542093201E0,-9.489965515E0,9.243278503E-1,9.658772121E0
4.524238333E0,-3.164419556E-1,-8.952433319E0,1.729653168E0,9.123480582E0
4.534197334E0,-1.571731567E-1,-1.037746994E1,1.605261841E0,1.050206891E1
4.544157333E0,4.317022705E-1,-1.018646713E1,8.505313110E-1,1.023102551E1
4.554117333E0,2.553390198E0,-1.005204666E1,-1.633103943E-1,1.037256544E1
4.564076333E0,1.907333679E0,-1.105526047E1,3.165916443E-1,1.122305378E1
4.574036333E0,1.221310272E0,-1.046189438E1,1.733245697E0,1.067459477E1
4.583996333E0,2.333198090E0,-1.100750977E1,2.325713654E0,1.148990986E1
4.593955333E0,5.103636932E0,-8.346792755E0,3.100652161E0,1.026304551E1
4.603915334E0,-1.827699280E-1,-8.219257965E0,1.280437317E0,8.320404201E0
4.613875333E0,-1.128952332E0,-6.759194183E0,1.568588104E0,7.030057469E0
4.623835333E0,-5.526507568E-1,-5.837860107E0,7.252418518E-1,5.908638526E0
4.633794333E0,1.239422607E-1,-6.563850403E0,-5.530998230E-1,6.588278471E0
4.643754333E0,1.358275452E0,-7.123237152E0,-2.943179626E0,7.826092642E0
4.653714333E0,1.655856628E0,-8.063581696E0,-4.368665314E0,9.319251448E0
4.663673333E0,7.547305298E-1,-8.609197083E0,-2.467319183E0,8.987522269E0
4.673633333E0,1.620230713E0,-8.849447479E0,-1.851649475E-1,8.998452884E0
4.683593333E0,2.353555756E0,-8.444389801E0,1.278790741E0,8.859020802E0
4.693552333E0,1.596729584E0,-9.081764374E0,1.399140472E0,9.326606219E0
4.703512333E0,8.765771484E-1,-1.015742752E1,1.055305481E0,1.024965321E1
4.713472334E0,6.234535217E-1,-1.100017502E1,8.304730225E-1,1.104908277E1
4.723431333E0,6.433621216E-1,-1.150821854E1,1.311273193E-1,1.152693381E1
4.733391333E0,5.081932068E-1,-1.172571625E1,-4.125421143E-1,1.174397177E1
4.743351333E0,1.736389160E-2,-1.137394775E1,-5.962101746E-1,1.138957662E1
4.753310333E0,-9.699829102E-2,-1.156824371E1,-5.252577209E-1,1.158056851E1
4.763270333E0,2.145039368E-1,-1.171898026E1,-1.085243225E-1,1.172144563E1
4.773230333E0,4.426295471E-1,-1.145582748E1,4.580474854E-1,1.147352220E1
4.783190334E0,9.180409241E-1,-1.119417160E1,8.512797546E-1,1.126396707E1
4.793149333E0,1.324146423E0,-1.088745941E1,9.744735718E-1,1.101089165E1
4.803109333E0,1.483714600E0,-1.094269455E1,9.894424438E-1,1.108706315E1
4.813069333E0,1.925146637E0,-9.341623993E0,8.869056702E-1,9.579077725E0
4.823028333E0,1.574725342E0,-6.807094574E0,6.566844177E-1,7.017658503E0
4.832988333E0,1.273401947E0,-6.685547333E0,4.396357727E-1,6.819924873E0
4.842948333E0,1.225800934E0,-6.539750519E0,-1.393601990E-1,6.655099251E0
4.852907334E0,1.477128296E0,-6.946754150E0,1.936972046E-1,7.104704064E0
4.862867333E0,1.812431030E0,-7.389234009E0,5.673202515E-1,7.629386459E0
4.872827333E0,2.128124542E0,-8.061635742E0,8.539741516E-1,8.381417348E0
4.882786333E0,1.772613831E0,-9.173523560E0,1.269959106E0,9.429129887E0
4.892746333E0,1.612895966E0,-1.027463379E1,1.592388611E0,1.052165550E1
4.902706333E0,9.633966064E-1,-1.138098312E1,1.355880432E0,1.150188339E1
4.912665333E0,7.798782349E-1,-1.455722809E1,1.124012604E0,1.462137148E1
4.922625333E0,2.159259796E0,-1.847592911E1,1.021475830E0,1.862970134E1
4.932585333E0,2.011816406E0,-2.040601547E1,6.141728210E-1,2.051414344E1
4.942545333E0,1.399140472E0,-1.753827896E1,1.008153534E0,1.762286006E1
4.952504333E0,1.375190277E0,-1.222298218E1,3.670367432E-1,1.230557425E1
4.962464334E0,1.416953430E0,-9.672136688E0,-1.408271484E0,9.876295546E0
4.972424333E0,1.367855530E0,-8.287815399E0,-1.141675873E0,8.477165602E0
4.982383333E0,1.203197937E0,-7.719597015E0,-1.679507446E-1,7.814606248E0
4.992343333E0,1.255738678E0,-8.044122162E0,6.650669861E-1,8.168665440E0
5.002303333E0,1.366658020E0,-9.172924805E0,1.366957397E0,9.374373373E0
5.012262333E0,1.896556091E0,-9.895472260E0,1.433868256E0,1.017709558E1
5.022222333E0,2.136507111E0,-9.768536224E0,1.115480347E0,1.006147400E1
5.032182333E0,2.133663025E0,-9.645791473E0,6.566844177E-1,9.900759843E0
5.042141333E0,1.848506012E0,-9.666448517E0,2.059716797E-1,9.843760752E0
5.052101333E0,1.487157440E0,-9.648036804E0,-3.158432007E-2,9.762030987E0
5.062061333E0,1.217568054E0,-9.651779022E0,-8.502319336E-2,9.728645291E0
5.072020333E0,1.023122406E0,-9.550739136E0,9.116043091E-2,9.605816348E0
5.081980333E0,1.147663422E0,-9.437873840E0,4.593946838E-1,9.518489241E0
5.091940333E0,1.503473511E0,-9.688452759E0,8.415499878E-1,9.840465225E0
5.101899333E0,1.902543640E0,-9.821376343E0,9.933343506E-1,1.005314969E1
5.111859333E0,2.163600769E0,-9.981094208E0,8.252339172E-1,1.024619056E1
5.121819333E0,2.130968628E0,-9.903256073E0,5.757028198E-1,1.014627724E1
5.131779333E0,2.004631348E0,-9.679920502E0,3.890409851E-1,9.892965210E0
5.141738334E0,1.762285309E0,-9.808802490E0,2.231858826E-1,9.968353311E0
5.151697958E0,1.601968689E0,-1.003079086E1,7.229965210E-2,1.015816402E1
5.161657959E0,1.541195068E0,-1.003558090E1,1.164578247E-1,1.015390214E1
5.171616958E0,1.511706390E0,-9.918224945E0,4.312532043E-1,1.004203274E1
5.181576958E0,1.459914093E0,-9.045240326E0,7.896080017E-1,9.196260246E0
5.191536958E0,1.506018219E0,-7.258705444E0,9.440867615E-1,7.473165020E0
5.201495958E0,1.618434448E0,-7.159162445E0,1.620380402E0,7.516553041E0
5.211455958E0,2.003284149E0,-9.143735504E0,2.138902130E0,9.601872144E0
5.221415958E0,1.917362823E0,-9.423204346E0,1.702260132E0,9.765794893E0
5.231374958E0,1.411414948E0,-1.100825821E1,8.607101440E-1,1.113169632E1
5.241334958E0,1.374741211E0,-1.140508301E1,-3.855981445E-1,1.149410796E1
5.251294958E0,9.946815491E-1,-1.069570816E1,-8.229885864E-1,1.077334092E1
5.261253958E0,1.099313965E0,-9.596543884E0,-1.367705841E0,9.755652976E0
5.271213959E0,1.256337433E0,-9.032217407E0,-1.048868866E0,9.179295231E0
5.281173958E0,1.060993652E0,-8.646020508E0,-6.622229004E-1,8.736012667E0
5.291132958E0,9.904902649E-1,-8.489296417E0,-2.906954956E-1,8.551826033E0
5.301092958E0,1.437311096E0,-7.705077209E0,-9.639953613E-2,7.838582197E0
5.311052958E0,1.006806335E0,-8.663085022E0,6.173162842E-1,8.743213396E0
5.321012958E0,1.499581604E0,-9.281898193E0,5.453160095E-1,9.418054396E0
5.330971958E0,2.204465790E0,-8.418044586E0,-1.047821045E-2,8.701910932E0
5.340931959E0,2.533331909E0,-9.524094543E0,-6.466552734E-2,9.855472037E0
5.350891958E0,3.154091034E0,-8.783285065E0,-4.523593140E-1,9.343394229E0
5.360850958E0,2.699785767E0,-7.730374603E0,6.026467896E-1,8.210403026E0
5.370810958E0,3.148253174E0,-6.468348999E0,1.073268127E-1,7.194619925E0
5.380770958E0,2.328707428E0,-6.850953369E0,6.376739502E-2,7.236194209E0
5.390729958E0,1.376537476E0,-7.292086029E0,-3.543132019E-1,7.429327824E0
5.400689958E0,1.870360565E0,-8.644523621E0,-5.313949585E-1,8.860497609E0
5.410649958E0,3.509601746E0,-8.920699310E0,-6.116281128E-1,9.605741489E0
5.420608958E0,2.545456696E0,-1.099538498E1,3.891906738E-1,1.129288759E1
5.430568958E0,3.044518890E0,-1.145477966E1,1.792672119E0,1.198727432E1
5.440528958E0,3.799399109E0,-9.997859344E0,3.601061554E0,1.128540072E1
5.450487959E0,3.250939636E0,-9.455088043E0,4.231101379E0,1.085677288E1
5.460447958E0,3.085084534E0,-8.635542297E0,3.375031586E0,9.771446953E0
5.470407958E0,2.459385681E0,-8.014334106E0,1.923350372E0,8.601011903E0
5.480366958E0,1.904489594E0,-8.207133179E0,3.269201660E-1,8.431547451E0
5.490326958E0,2.005230103E0,-9.166188812E0,-2.459385681E-1,9.386184043E0
5.500286958E0,2.441273346E0,-1.072534653E1,-4.176315308E-2,1.099975535E1
5.510246958E0,2.593955841E0,-1.028376480E1,-3.056643677E-1,1.061027125E1
5.520205959E0,3.981719971E0,-1.046728317E1,-1.760788422E0,1.133659944E1
5.530165958E0,2.318827972E0,-1.359862152E1,-2.089055786E0,1.395219067E1
5.540125958E0,2.967279510E0,-1.181957108E1,-2.870430908E0,1.251983952E1
5.550084958E0,2.836750946E0,-1.250215164E1,-2.448308716E0,1.305163466E1
5.560044958E0,1.529219971E0,-1.271934998E1,-2.228565674E0,1.300334120E1
5.570004958E0,2.258054352E0,-1.154818542E1,-1.941612396E0,1.192599072E1
5.579963958E0,2.712658997E0,-1.210667404E1,-1.723964996E0,1.252605806E1
5.589923958E0,2.258204041E0,-1.091874435E1,-1.716630249E0,1.128119157E1
5.599883958E0,2.136956177E0,-1.115016312E1,-1.403331757E0,1.143949559E1
5.609842958E0,2.927013245E0,-1.105585922E1,-8.831634521E-2,1.143709882E1
5.619802958E0,3.348536682E0,-1.005878265E1,5.194198608E-1,1.061421704E1
5.629762959E0,3.646267548E0,-8.633446655E0,6.544390869E-1,9.394677147E0
5.639721958E0,1.971550140E0,-9.516610107E0,3.625460815E-1,9.725446908E0
5.649681958E0,1.015188904E0,-7.829767914E0,1.905537415E-1,7.897606272E0
5.659641958E0,1.316063232E0,-3.444636841E0,1.470242615E0,3.969780692E0
5.669601958E0,-5.529501343E-1,-4.374652863E0,-2.885998535E-1,4.418894816E0
5.679560958E0,-1.004411316E-1,-4.982389069E0,2.313139801E0,5.494079085E0
5.689520958E0,1.005758514E0,-5.590125275E0,2.113305359E0,6.060289623E0
5.699480959E0,-1.272503815E0,-6.523135071E0,-3.574566650E-1,6.655699240E0
5.709439958E0,6.137237549E-3,-7.228917389E0,2.504591675E0,7.650507417E0
5.719399958E0,-8.831634521E-3,-7.332651672E0,1.012195129E0,7.402188698E0
5.729359958E0,-6.930587769E-2,-7.845934296E0,1.984872437E0,8.093405147E0
5.739318958E0,-1.017883301E-2,-9.552086334E0,1.689536591E0,9.700360346E0
5.749278958E0,5.921685791E-1,-1.044363235E1,1.641187134E0,1.058837172E1
5.759238958E0,2.215393066E0,-9.435628510E0,8.949888611E-1,9.733450409E0
5.769197959E0,4.812941437E0,-1.146750320E1,-4.047583008E-1,1.244314527E1
5.779157958E0,7.469766541E0,-1.338830887E1,-2.941383362E0,1.561076432E1
5.789117958E0,8.009544067E0,-1.430320633E1,-4.890480194E0,1.710705422E1
5.799076958E0,5.533992004E0,-1.302860687E1,-2.054477692E0,1.430351506E1
5.809036958E0,4.333638153E0,-1.247865051E1,8.982820129E-1,1.324024353E1
5.818996958E0,3.993096313E0,-1.123578506E1,1.405427399E0,1.200678601E1
5.828956958E0,4.256398773E0,-9.677824860E0,3.992198181E-1,1.058000950E1
5.838915958E0,5.429958344E0,-9.028624878E0,-9.181906128E-1,1.057561293E1
5.848875958E0,7.830067291E0,-8.748557281E0,-7.509883118E-1,1.176482859E1
5.858835958E0,8.922196198E0,-8.299042053E0,2.411485291E-1,1.218760996E1
5.868794958E0,8.016579437E0,-8.101303253E0,7.247927856E-1,1.142024452E1
5.878754959E0,6.425687714E0,-7.730374603E0,8.059240723E-1,1.008452615E1
5.888714958E0,5.582940216E0,-7.973169708E0,6.120771790E-1,9.752707067E0
5.898673958E0,5.084327087E0,-8.184380493E0,5.580395508E-1,9.651211019E0
5.908633958E0,4.633614349E0,-8.556207275E0,5.837860107E-1,9.747813652E0
5.918593958E0,4.436324615E0,-8.987759857E0,5.049000549E-1,1.003572257E1
5.928552958E0,4.414919128E0,-9.470805359E0,2.938389587E-1,1.045342080E1
5.938512958E0,4.213587799E0,-9.775721283E0,7.065307617E-2,1.064537649E1
5.948472959E0,4.068988495E0,-9.785600739E0,-2.281256104E-1,1.060031558E1
5.958432958E0,4.000431061E0,-9.207053833E0,-3.165916443E-1,1.004358100E1
5.968391958E0,3.571423187E0,-8.827592926E0,-1.916015625E-1,9.524608738E0
5.978351958E0,3.636537781E0,-8.383466492E0,8.083190918E-2,9.138569431E0
5.988311958E0,3.713926849E0,-8.017178192E0,2.023791504E-1,8.837949769E0
5.998270958E0,4.005071411E0,-7.863747253E0,1.758842468E-1,8.826667159E0
6.008230958E0,4.360432434E0,-8.103099518E0,2.225871277E-1,9.204517252E0
6.018190958E0,4.778812408E0,-8.648565216E0,3.327580261E-1,9.886630176E0
6.028149958E0,5.123096466E0,-9.044192505E0,5.096900940E-1,1.040688808E1
6.038109958E0,5.200635223E0,-8.970845032E0,7.364685059E-1,1.039543425E1
6.048069958E0,4.895719299E0,-8.496182098E0,8.924441528E-1,9.846300537E0
6.058028959E0,4.337230682E0,-8.160130920E0,1.130299530E0,9.310042087E0
6.067988958E0,3.916755066E0,-8.144862671E0,1.328936462E0,9.134868926E0
6.077948958E0,3.969295807E0,-8.265511780E0,1.256786499E0,9.254917962E0
6.087908958E0,4.404889984E0,-8.381221161E0,9.602531433E-1,9.516827729E0
6.097867958E0,4.940625916E0,-8.646170197E0,6.683601379E-1,9.980618657E0
6.107827958E0,5.328020325E0,-8.721613312E0,3.824546814E-1,1.022744401E1
6.117787958E0,5.491779785E0,-8.783734131E0,5.114863586E-1,1.037184886E1
6.127746959E0,5.372328186E0,-8.654852142E0,7.429051208E-1,1.021373016E1
6.137706958E0,5.224735107E0,-8.480315094E0,1.105750580E0,1.002179053E1
6.147666500E0,5.298980713E0,-8.628955994E0,1.377734985E0,1.021940467E1
6.157625500E0,5.061873779E0,-8.921597443E0,1.329086151E0,1.034330397E1
6.167585500E0,4.854704590E0,-8.797655182E0,1.195114746E0,1.011905097E1
6.177545500E0,4.924459534E0,-8.278684387E0,7.198530579E-1,9.659456781E0
6.187504500E0,5.269042969E0,-8.093070374E0,3.727249146E-1,9.664343006E0
6.197464500E0,5.309608612E0,-8.118218079E0,3.070115662E-1,9.705239023E0
6.207424500E0,5.595963135E0,-8.500523071E0,4.171824646E-1,1.018566331E1
6.217384500E0,5.575156403E0,-8.924142151E0,5.403762817E-1,1.053635082E1
6.227343500E0,5.159919891E0,-9.090745697E0,5.884263611E-1,1.046960726E1
6.237303500E0,4.437821503E0,-9.060358887E0,6.927593994E-1,1.011258021E1
6.247263500E0,3.857927399E0,-8.654403076E0,7.590715027E-1,9.505708073E0
6.257222500E0,3.861370239E0,-8.229586487E0,6.917115784E-1,9.116728513E0
6.267182500E0,4.285737762E0,-8.056696014E0,2.260299683E-1,9.128471306E0
6.277142500E0,4.593946838E0,-7.952961731E0,-1.595681763E-1,9.185826574E0
6.287101500E0,4.747527466E0,-8.149503021E0,2.685415649E-1,9.435334181E0
6.297061500E0,4.965623932E0,-8.415350189E0,5.310955811E-1,9.785581350E0
6.307021500E0,5.153333588E0,-8.501870270E0,5.309458923E-1,9.955930328E0
6.316980500E0,4.652475128E0,-8.319848785E0,7.331753540E-1,9.560489252E0
6.326940500E0,3.855831757E0,-8.067772980E0,8.502319336E-1,8.982165314E0
6.336900500E0,3.462000732E0,-8.096662903E0,6.542893982E-1,8.830033627E0
6.346860500E0,3.565884705E0,-8.467890930E0,7.319778442E-1,9.217185150E0
6.356819500E0,3.934717712E0,-8.401578827E0,1.183439026E0,9.352489411E0
6.366779500E0,4.529131622E0,-8.272547150E0,1.605112152E0,9.566841413E0
6.376739500E0,5.302872620E0,-8.149203644E0,1.694176941E0,9.869154653E0
6.386698500E0,6.427483978E0,-8.165519714E0,1.292113037E0,1.047176292E1
6.396658500E0,6.366111603E0,-8.136480103E0,6.759942627E-1,1.035309875E1
6.406618500E0,6.319109344E0,-8.149952087E0,3.490740967E-1,1.031865857E1
6.416577500E0,6.294859772E0,-8.360264740E0,5.358856201E-2,1.046528346E1
6.426537500E0,6.046226807E0,-8.624764709E0,-2.905458069E-1,1.053697498E1
6.436497500E0,5.833519135E0,-8.772956543E0,-6.691085815E-1,1.055662912E1
6.446456500E0,5.855972443E0,-8.916807404E0,-9.756710815E-1,1.071232008E1
6.456416500E0,5.740412750E0,-8.989406433E0,-1.264270935E0,1.074058413E1
6.466376500E0,5.308860168E0,-8.572373657E0,-1.310524750E0,1.016794284E1
6.476336500E0,5.003195801E0,-8.345595245E0,-1.097966766E0,9.792163154E0
6.486295500E0,4.912185059E0,-8.648565216E0,-7.511380005E-1,9.974540122E0
6.496255500E0,4.805007935E0,-9.117689667E0,-2.279759216E-1,1.030884761E1
6.506215500E0,4.659360809E0,-9.425449677E0,5.080435181E-1,1.052648341E1
6.516174500E0,4.704417114E0,-9.441466370E0,1.034498749E0,1.059919880E1
6.526134500E0,4.778662720E0,-9.058862000E0,1.231339417E0,1.031575469E1
6.536094500E0,4.790787506E0,-8.559500427E0,1.111588440E0,9.871794232E0
6.546053500E0,4.643044739E0,-8.340954895E0,7.905061340E-1,9.578846118E0
6.556013500E0,4.706063690E0,-8.301886139E0,5.372328186E-1,9.558083909E0
6.565973500E0,4.845124512E0,-8.489446106E0,2.980302429E-1,9.779302058E0
6.575932500E0,4.866080933E0,-8.593330078E0,1.913021851E-1,9.877280091E0
6.585892500E0,4.951553192E0,-8.523275757E0,3.345542908E-1,9.862861411E0
6.595852500E0,4.991819458E0,-8.403375092E0,5.733078003E-1,9.790998737E0
6.605811500E0,4.920867004E0,-8.025261383E0,6.783892822E-1,9.438218283E0
6.615771500E0,5.488187256E0,-7.946225739E0,8.280780029E-1,9.692699109E0
6.625731500E0,5.695057068E0,-8.070766754E0,6.092330933E-1,9.896570920E0
6.635691500E0,5.486989746E0,-8.206684113E0,4.168830872E-1,9.880815356E0
6.645650500E0,4.903652802E0,-8.312813416E0,4.575984192E-1,9.662198197E0
6.655610500E0,4.522545319E0,-8.349786530E0,8.075706482E-1,9.530190009E0
6.665570500E0,4.382137299E0,-8.215366058E0,1.185834045E0,9.386243613E0
6.675529500E0,4.505331116E0,-7.982450409E0,1.447040863E0,9.279625545E0
6.685489500E0,4.913083191E0,-7.827522583E0,1.676962738E0,9.392587516E0
6.695449500E0,5.566773834E0,-8.335117035E0,1.726809082E0,1.017079232E1
6.705408500E0,5.946833496E0,-8.753796387E0,1.687740326E0,1.071644751E1
6.715368500E0,5.804778900E0,-8.787326660E0,1.624721375E0,1.065609157E1
6.725328500E0,5.275928650E0,-8.944948883E0,1.259181519E0,1.046102632E1
6.735287500E0,5.015021210E0,-8.672365723E0,8.813671875E-1,1.005669792E1
6.745247500E0,5.397326202E0,-8.268954620E0,8.044271851E-1,9.907262172E0
6.755207500E0,5.876779175E0,-8.002808075E0,9.644444275E-1,9.975551293E0
6.765166500E0,6.143973541E0,-7.741900635E0,1.212628326E0,9.957705748E0
6.775126500E0,6.136339417E0,-7.453899536E0,1.329684906E0,9.745939753E0
6.785086500E0,6.271208954E0,-7.177723846E0,1.374292145E0,9.629977168E0
6.795045500E0,6.552623749E0,-7.394173737E0,1.297052765E0,9.964588758E0
6.805005500E0,6.778653717E0,-7.717052307E0,1.184786224E0,1.033957257E1
6.814965500E0,7.197782135E0,-8.242459717E0,1.048868866E0,1.099301304E1
6.824924500E0,7.302414551E0,-8.531358948E0,8.181985474E-1,1.125960890E1
6.834884500E0,7.086713104E0,-8.427474976E0,4.764591980E-1,1.102138151E1
6.844844500E0,6.453529816E0,-8.330027618E0,3.179388428E-1,1.054222426E1
6.854803500E0,5.249284058E0,-8.066575470E0,2.884501648E-1,9.628490350E0
6.864763500E0,3.979025574E0,-7.813601532E0,4.061054993E-1,8.777809242E0
6.874723500E0,2.946921844E0,-7.638316040E0,6.506968689E-1,8.212893930E0
6.884683500E0,2.662513275E0,-7.317832489E0,1.031804352E0,7.855206522E0
6.894642500E0,3.884422302E0,-8.033045197E0,1.066981201E0,8.986489895E0
6.904602500E0,5.659281464E0,-8.385711823E0,9.681866455E-1,1.016292354E1
6.914562500E0,5.893095245E0,-7.636819153E0,9.304650879E-1,9.690992912E0
6.924521500E0,5.810467072E0,-7.235204315E0,7.884104919E-1,9.312964092E0
6.934481500E0,5.595514069E0,-7.275620270E0,9.678872681E-1,9.229368005E0
6.944441500E0,4.702471161E0,-7.213798828E0,9.125024414E-1,8.659375801E0
6.954400500E0,3.869303741E0,-7.131919098E0,5.774990845E-1,8.134450606E0
6.964360500E0,3.719764709E0,-7.444618835E0,3.638932800E-1,8.330151104E0
6.974320500E0,3.668271790E0,-7.611970825E0,7.918533325E-2,8.450123554E0
6.984279500E0,3.810027008E0,-7.711364136E0,-1.097218323E-1,8.601946380E0
6.994239500E0,4.940775604E0,-8.164022827E0,1.188528442E-1,9.543409155E0
7.004199500E0,6.307882690E0,-8.597671051E0,2.504292297E-1,1.066639800E1
7.014158500E0,7.116351471E0,-8.542136536E0,9.729766846E-3,1.111803263E1
7.024118500E0,7.367678833E0,-8.337961121E0,-4.102967834E-1,1.113429973E1
7.034078500E0,7.536827087E0,-8.361462250E0,-3.800596619E-1,1.126331474E1
7.044037500E0,7.848179626E0,-8.553961945E0,-6.331832886E-2,1.160897057E1
7.053997500E0,7.568112030E0,-8.688681793E0,1.392105103E-1,1.152340621E1
7.063957500E0,6.958878937E0,-8.678952026E0,3.387455750E-1,1.112946328E1
7.073916500E0,6.283932495E0,-8.727750549E0,5.852828979E-1,1.077051500E1
7.083876500E0,5.844745789E0,-8.700656891E0,7.382647705E-1,1.050749821E1
7.093836500E0,5.645360413E0,-8.611592102E0,8.560697937E-1,1.033259252E1
7.103795500E0,5.853876801E0,-8.480165405E0,1.064436493E0,1.035925209E1
7.113755500E0,6.092779999E0,-8.384963379E0,1.121318207E0,1.042530256E1
7.123715500E0,6.265371094E0,-8.290210419E0,9.101074219E-1,1.043123958E1
7.133674500E0,6.174510040E0,-8.106093292E0,6.170169067E-1,1.020852744E1
7.143634500E0,5.963448944E0,-7.927814026E0,3.884422302E-1,9.927932610E0
7.153595333E0,5.413642273E0,-7.688910828E0,3.124003601E-1,9.408744144E0
7.163554333E0,4.989424438E0,-7.458090820E0,4.334985352E-1,8.983618196E0
7.173514333E0,4.963378601E0,-7.358547821E0,7.735913086E-1,8.909646272E0
7.183474333E0,5.091212769E0,-7.361391907E0,1.120120697E0,9.020266550E0
7.193433333E0,5.237458649E0,-7.507039032E0,1.444945221E0,9.266848160E0
7.203393333E0,5.403613129E0,-7.814948730E0,1.645228729E0,9.642574142E0
7.213353333E0,5.487139435E0,-8.138126678E0,1.783241730E0,9.975858664E0
7.223312333E0,5.378166046E0,-8.150700531E0,1.762434998E0,9.922941413E0
7.233272333E0,5.152136078E0,-8.006550293E0,1.544488220E0,9.645454765E0
7.243232333E0,4.547243958E0,-7.914491730E0,1.263223114E0,9.214789177E0
7.253191333E0,4.205654297E0,-7.937543793E0,1.237776031E0,9.067757111E0
7.263151333E0,4.459975433E0,-7.933651886E0,1.334774323E0,9.198686624E0
7.273111333E0,4.938230896E0,-7.723339233E0,1.395547943E0,9.272736778E0
7.283070333E0,5.690416718E0,-7.865094452E0,1.200653229E0,9.781723843E0
7.293030333E0,6.181545410E0,-8.141419830E0,8.345146179E-1,1.025624859E1
7.302990333E0,6.059998169E0,-8.157436523E0,4.766088867E-1,1.017322488E1
7.312950333E0,5.804030457E0,-7.891140289E0,3.495231628E-1,9.801991178E0
7.322909334E0,5.362897797E0,-7.708819427E0,5.357359314E-1,9.406039694E0
7.332869333E0,4.911735992E0,-7.552694092E0,8.771759033E-1,9.051948744E0
7.342829333E0,4.870421906E0,-7.629035339E0,1.232536926E0,9.134677719E0
7.352788333E0,5.108277283E0,-7.793992310E0,1.374890900E0,9.419720691E0
7.362748333E0,5.444627838E0,-8.018226013E0,1.336570587E0,9.783779517E0
7.372708333E0,5.532195740E0,-8.231831818E0,1.126707001E0,9.981869236E0
7.382667333E0,5.381010132E0,-8.398135986E0,8.289761353E-1,1.000855432E1
7.392627334E0,4.980592804E0,-8.518485718E0,5.842350769E-1,9.884949885E0
7.402587333E0,4.348906403E0,-8.350385284E0,4.776567078E-1,9.427092724E0
7.412546333E0,3.901187439E0,-8.059689789E0,4.830455017E-1,8.967228997E0
7.422506333E0,3.816313934E0,-7.870034180E0,5.040019226E-1,8.761033499E0
7.432466333E0,3.941902771E0,-7.398065643E0,4.740641785E-1,8.396112765E0
7.442425333E0,4.304149475E0,-7.289541321E0,3.324586487E-1,8.471932727E0
7.452385333E0,5.119653625E0,-8.083490295E0,5.580395508E-1,9.584627105E0
7.462345333E0,5.796096954E0,-8.752299500E0,7.503895569E-1,1.052428482E1
7.472304333E0,6.194568329E0,-8.776100006E0,2.921923828E-1,1.074606833E1
7.482264333E0,6.507567444E0,-8.558003540E0,-7.274871826E-2,1.075142553E1
7.492224333E0,7.442074127E0,-9.125473480E0,1.862127686E-1,1.177681658E1
7.502183334E0,7.607330475E0,-9.306746521E0,5.507048035E-1,1.203288343E1
7.512143333E0,7.256609802E0,-9.122629395E0,2.424957275E-1,1.165931203E1
7.522103333E0,6.592440948E0,-8.947044525E0,-5.074447632E-2,1.111361590E1
7.532062333E0,5.625302124E0,-8.447233887E0,-6.182144165E-2,1.014906923E1
7.542022333E0,4.912185059E0,-7.915539551E0,3.656895447E-1,9.323039058E0
7.551982333E0,4.464017029E0,-7.649991760E0,8.660989380E-1,8.899435338E0
7.561941333E0,4.153562622E0,-7.997269592E0,1.259031830E0,9.099096908E0
7.571901334E0,4.321363678E0,-8.246052246E0,1.393751678E0,9.413506542E0
7.581861333E0,4.797673187E0,-8.115823059E0,1.492246857E0,9.545210978E0
7.591820333E0,5.617817688E0,-9.151818695E0,1.158441010E0,1.080081694E1
7.601780333E0,5.606441345E0,-9.182205505E0,6.390211487E-1,1.077745009E1
7.611740333E0,5.695057068E0,-8.602311401E0,7.135661316E-1,1.034130616E1
7.621699333E0,5.206772461E0,-7.978259125E0,9.568103027E-1,9.574893424E0
7.631659333E0,4.608915710E0,-7.295828247E0,9.581575012E-1,8.682700020E0
7.641619333E0,4.741390228E0,-7.265142059E0,1.105002136E0,8.745518862E0
7.651578333E0,5.204078064E0,-7.689659271E0,1.347797241E0,9.382422161E0
7.661538333E0,5.592819672E0,-8.188122711E0,1.527573395E0,1.003286927E1
7.671498333E0,5.572012939E0,-8.415350189E0,1.637444916E0,1.022480674E1
7.681457333E0,5.337301025E0,-8.679251404E0,1.690285034E0,1.032827433E1
7.691417333E0,5.201383667E0,-8.774603119E0,1.487157440E0,1.030823405E1
7.701377333E0,5.254822540E0,-8.869505768E0,1.149609375E0,1.037318149E1
7.711336333E0,5.505102081E0,-8.913813629E0,9.207353210E-1,1.051712774E1
7.721296333E0,5.776188354E0,-8.799301758E0,7.014413452E-1,1.054912713E1
7.731256333E0,5.986950073E0,-8.697363739E0,5.825885010E-1,1.057483411E1
7.741215333E0,6.061045990E0,-8.497678986E0,5.640270996E-1,1.045298776E1
7.751175334E0,5.966143341E0,-8.350385284E0,5.863307190E-1,1.027947394E1
7.761135333E0,5.571264496E0,-8.072563019E0,4.909790039E-1,9.820708842E0
7.771094333E0,5.349874878E0,-7.957003326E0,4.581971741E-1,9.599219124E0
7.781054333E0,4.898413696E0,-7.915988617E0,3.926335144E-1,9.317268570E0
7.791014333E0,4.300856323E0,-7.804021454E0,3.022215271E-1,8.915797991E0
7.800973333E0,4.145928497E0,-7.831264801E0,5.680686951E-1,8.879196671E0
7.810933333E0,4.911735992E0,-8.300389252E0,5.894741821E-1,9.662768340E0
7.820893333E0,4.997357941E0,-8.324788513E0,7.725434875E-1,9.740252236E0
7.830852333E0,5.440436554E0,-8.416697388E0,6.712042236E-1,1.004438450E1
7.840812333E0,5.575904846E0,-8.099207611E0,5.460644531E-1,9.848150342E0
7.850772333E0,6.018384705E0,-8.192463684E0,7.095245361E-1,1.019023261E1
7.860731333E0,6.050268402E0,-8.265661469E0,5.641767883E-1,1.025890846E1
7.870691333E0,5.915099487E0,-8.444240112E0,5.435197449E-1,1.032419521E1
7.880651333E0,5.296885071E0,-8.371790771E0,5.023553467E-1,9.919487541E0
7.890610333E0,4.848717041E0,-8.206833801E0,5.728587341E-1,9.549363597E0
7.900570333E0,4.551285553E0,-7.915389862E0,6.026467896E-1,9.150452448E0
7.910530333E0,4.743336182E0,-7.797285461E0,8.158035278E-1,9.163101773E0
7.920489333E0,4.804558868E0,-7.674989777E0,9.596543884E-1,9.105503310E0
7.930449334E0,4.984933777E0,-7.723638611E0,1.114582214E0,9.259937995E0
7.940409333E0,5.385500793E0,-8.148455200E0,1.366358643E0,9.862447814E0
7.950368333E0,5.345533905E0,-8.389603729E0,1.238225098E0,1.002463889E1
7.960328333E0,5.111121368E0,-8.260122986E0,8.657995605E-1,9.752066564E0
7.970288333E0,4.917723541E0,-8.076604614E0,5.827381897E-1,9.473918446E0
7.980247333E0,4.862787781E0,-7.922425232E0,5.378315735E-1,9.311325865E0
7.990207333E0,4.908592529E0,-7.837402039E0,6.861730957E-1,9.273078499E0
8.000167334E0,4.841531982E0,-7.727081451E0,7.384144592E-1,9.148413830E0
8.010126333E0,5.081932068E0,-7.724536743E0,8.732839966E-1,9.287471474E0
8.020086333E0,5.519322510E0,-7.930209045E0,1.044976959E0,9.718184672E0
8.030046333E0,5.833369446E0,-8.236921234E0,1.143172760E0,1.015784989E1
8.040005333E0,5.986800385E0,-8.446635132E0,1.273252258E0,1.043113585E1
8.049965333E0,6.171516266E0,-8.536148987E0,1.372346191E0,1.062246613E1
8.059925333E0,6.288572845E0,-8.420589294E0,1.358574829E0,1.059708441E1
8.069884333E0,6.243666229E0,-8.436605988E0,1.244062958E0,1.056917126E1
8.079844333E0,5.931714935E0,-8.419691162E0,8.773255920E-1,1.033664073E1
8.089804333E0,5.652844849E0,-8.489146729E0,5.364843750E-1,1.021313285E1
8.099763333E0,5.471272430E0,-8.409362640E0,3.409909058E-1,1.003835030E1
8.109723334E0,5.341641998E0,-7.885901184E0,3.137475586E-1,9.529901062E0
8.119683333E0,5.341641998E0,-7.312443695E0,6.791377258E-1,9.081090247E0
8.129642333E0,5.353467407E0,-7.065008240E0,1.212328949E0,8.946714268E0
8.139602333E0,5.585035858E0,-7.323370972E0,1.688339081E0,9.363486358E0
8.149562375E0,5.822891235E0,-7.710016937E0,1.964365082E0,9.859470254E0
8.159521375E0,6.464906158E0,-8.264763336E0,2.162103882E0,1.071335698E1
8.169481375E0,6.942263489E0,-8.810678101E0,2.066452789E0,1.140584491E1
8.179441375E0,6.834936676E0,-8.830137634E0,1.560055847E0,1.127481549E1
8.189400375E0,6.546486511E0,-8.677604828E0,1.030606842E0,1.091876649E1
8.199360375E0,6.061495056E0,-8.400381317E0,5.754034424E-1,1.037493218E1
8.209320375E0,5.336702271E0,-8.038433990E0,4.143383789E-1,9.657561205E0
8.219279375E0,4.630321198E0,-7.773335266E0,6.423143005E-1,9.070677109E0
8.229239375E0,4.301155701E0,-7.776329041E0,1.055754547E0,8.949069861E0
8.239199375E0,4.462669830E0,-7.925868073E0,1.535656586E0,9.224589306E0
8.249158375E0,4.524491272E0,-7.619904327E0,1.538650360E0,8.994521008E0
8.259118375E0,5.694907379E0,-8.104297028E0,1.819616089E0,1.007087896E1
8.269078375E0,5.866899719E0,-8.155340881E0,1.508862305E0,1.015907292E1
8.279037375E0,5.551056519E0,-7.775730286E0,1.326391754E0,9.645492472E0
8.288997375E0,4.748126221E0,-7.398215332E0,9.547146606E-1,8.842498108E0
8.298957375E0,4.142335968E0,-7.516469421E0,9.285191345E-1,8.632404510E0
8.308916375E0,4.111500092E0,-7.552095337E0,1.124461670E0,8.671965811E0
8.318876375E0,4.304149475E0,-7.455845490E0,1.178050232E0,8.689254112E0
8.328836375E0,4.657564545E0,-7.432344360E0,1.174008636E0,8.849347233E0
8.338795375E0,5.017565918E0,-7.612868958E0,1.165476379E0,9.191848383E0
8.348755375E0,5.610482941E0,-8.220006409E0,1.256337433E0,1.003117181E1
8.358714375E0,5.831722870E0,-8.699459381E0,1.182241516E0,1.053979507E1
8.368674375E0,5.229375458E0,-8.430917816E0,7.185058594E-1,9.947009278E0
8.378634375E0,5.448370056E0,-8.515342255E0,5.141807556E-1,1.012226120E1
8.388594375E0,5.711223450E0,-8.936716003E0,5.912704468E-1,1.062226751E1
8.398553375E0,5.700894928E0,-8.922944641E0,3.308120728E-1,1.059379916E1
8.408513375E0,6.001769257E0,-9.019643555E0,9.145980835E-2,1.083436980E1
8.418472375E0,6.091133423E0,-8.683742065E0,1.166075134E-1,1.060768023E1
8.428432375E0,5.779930573E0,-8.395142212E0,4.427792358E-1,1.020206173E1
8.438392375E0,5.579647064E0,-8.264314270E0,1.118474121E0,1.003405880E1
8.448351375E0,5.370531921E0,-8.084687805E0,1.563199310E0,9.830990902E0
8.458311375E0,5.178331604E0,-7.855664063E0,1.731449432E0,9.566843429E0
8.468271375E0,5.180576935E0,-7.796986084E0,1.797611847E0,9.532196899E0
8.478230375E0,5.217849426E0,-7.878267059E0,1.783241730E0,9.616288034E0
8.488190375E0,5.005141754E0,-8.059839478E0,1.580413513E0,9.618220379E0
8.498150375E0,4.830604706E0,-8.312813416E0,1.199455719E0,9.688978415E0
8.508109375E0,4.569846954E0,-8.424930267E0,7.394622803E-1,9.612999306E0
8.518069375E0,4.344266052E0,-8.283025360E0,4.939727783E-1,9.366171350E0
8.528029375E0,4.396956482E0,-8.130791931E0,5.525010681E-1,9.260035700E0
8.537988375E0,4.646337891E0,-8.119864655E0,7.122189331E-1,9.382319202E0
8.547948375E0,4.921316071E0,-8.000113678E0,8.960366821E-1,9.435255824E0
8.557908375E0,5.301824799E0,-7.821834412E0,1.078058167E0,9.510659765E0
8.567867375E0,5.906716919E0,-7.775430908E0,1.206790466E0,9.838850227E0
8.577827375E0,6.345753937E0,-7.827821960E0,1.219214630E0,1.015036324E1
8.587787375E0,6.685397644E0,-8.092920685E0,1.203796692E0,1.056593741E1
8.597746375E0,6.519692230E0,-8.369994507E0,1.048120422E0,1.066122654E1
8.607706375E0,5.680088196E0,-8.638236694E0,7.044351196E-1,1.036237251E1
8.617666375E0,5.201233978E0,-8.899742889E0,5.096900940E-1,1.032075784E1
8.627625375E0,5.136119385E0,-8.919352112E0,4.906796265E-1,1.030414145E1
8.637585375E0,5.235512695E0,-8.797056427E0,5.544470215E-1,1.025213180E1
8.647545375E0,5.246889038E0,-8.558153229E0,6.493496704E-1,1.005949732E1
8.657504375E0,5.346881104E0,-8.210875397E0,8.298742676E-1,9.833427867E0
8.667464375E0,5.538782043E0,-7.990383911E0,1.081201630E0,9.782297201E0
8.677424375E0,5.469925232E0,-7.839347992E0,1.133442993E0,9.626014336E0
8.687383375E0,5.341342621E0,-8.024812317E0,1.075663147E0,9.699721899E0
8.697343375E0,5.179678802E0,-8.319250031E0,1.167422333E0,9.869238495E0
8.707303375E0,4.781806183E0,-8.322992249E0,1.289718018E0,9.685104176E0
8.717262375E0,4.357288971E0,-8.160729675E0,1.424437866E0,9.360154873E0
8.727222375E0,4.154610443E0,-7.955207062E0,1.638642426E0,9.123116591E0
8.737182375E0,4.058809662E0,-7.832312622E0,1.734592896E0,8.990432103E0
8.747141375E0,4.406835938E0,-7.825127563E0,1.849404144E0,9.169139548E0
8.757101375E0,5.205724640E0,-7.992180176E0,1.927841034E0,9.730934387E0
8.767061375E0,6.027964783E0,-8.438701630E0,1.869612122E0,1.053771769E1
8.777020375E0,6.200705566E0,-8.490044861E0,1.445394287E0,1.061219939E1
8.786980375E0,5.914800110E0,-8.218210144E0,9.678872681E-1,1.017156055E1
8.796940375E0,5.595963135E0,-8.277037811E0,6.840774536E-1,1.001459536E1
8.806899375E0,5.288652191E0,-8.314609680E0,7.632627869E-1,9.883579626E0
8.816859375E0,4.861590271E0,-8.247998199E0,9.434880066E-1,9.620535530E0
8.826819375E0,5.065765686E0,-8.432115326E0,1.181792450E0,9.907531693E0
8.836778375E0,5.236560516E0,-8.261021118E0,9.131011963E-1,9.823430651E0
8.846738375E0,5.788762207E0,-8.226742401E0,5.520520020E-1,1.007441412E1
8.856698375E0,6.249803467E0,-8.332871704E0,3.400927734E-1,1.042173005E1
8.866657375E0,6.092181244E0,-7.888296204E0,2.231858826E-1,9.969438361E0
8.876617375E0,5.582640839E0,-7.934550018E0,4.728666687E-1,9.713216028E0
8.886577375E0,5.000202026E0,-8.104147339E0,6.572831726E-1,9.545221085E0
8.896536375E0,5.111121368E0,-8.385412445E0,8.858578491E-1,9.860195112E0
8.906496375E0,5.681285706E0,-8.599018250E0,9.178912354E-1,1.034710812E1
8.916456375E0,5.862109680E0,-8.381969604E0,5.577401733E-1,1.024367212E1
8.926415375E0,5.751789093E0,-8.234675903E0,4.225712585E-1,1.005343381E1
8.936375375E0,5.248834991E0,-8.040230255E0,5.034031677E-1,9.615039577E0
8.946335375E0,4.613855438E0,-7.858657837E0,7.716453552E-1,9.145578252E0
8.956294375E0,3.954776001E0,-7.658823395E0,1.122815094E0,8.692441702E0
8.966254375E0,3.844156036E0,-7.891140289E0,1.472637634E0,8.900353493E0
8.976214375E0,3.981420593E0,-8.086933136E0,1.517843628E0,9.140790270E0
8.986173375E0,4.328698425E0,-8.314759369E0,1.540746002E0,9.499829033E0
8.996133375E0,5.171445923E0,-8.660839691E0,1.687141571E0,1.022743584E1
9.006093375E0,6.023923187E0,-8.664132843E0,1.686243439E0,1.068635885E1
9.016052375E0,6.086044006E0,-8.193810883E0,1.327738953E0,1.029278190E1
9.026012375E0,6.059549103E0,-7.832612000E0,1.152303772E0,9.969741724E0
9.035972375E0,5.952671356E0,-7.956404572E0,1.084345093E0,9.995722798E0
9.045931375E0,5.544170837E0,-8.207881622E0,1.081051941E0,9.963725423E0
9.055891375E0,5.422773285E0,-8.578061829E0,1.367107086E0,1.024004866E1
9.065851375E0,5.432053986E0,-8.792416077E0,1.516346741E0,1.044572154E1
9.075810375E0,5.579197998E0,-8.855135651E0,1.309626617E0,1.054779596E1
9.085770375E0,5.387446747E0,-8.834777985E0,8.322692871E-1,1.038125988E1
9.095730375E0,5.123844910E0,-8.739126892E0,5.269042969E-1,1.014414874E1
9.105689375E0,4.877457275E0,-8.516390076E0,4.677772522E-1,9.825339941E0
9.115649375E0,4.790488129E0,-8.248147888E0,6.976991272E-1,9.563864500E0
9.125609375E0,4.827311554E0,-7.971074066E0,1.028211823E0,9.375402826E0
9.135568375E0,5.056784363E0,-7.792495422E0,1.137484589E0,9.358842032E0
9.145528333E0,5.265450439E0,-7.695497131E0,9.262738037E-1,9.370358989E0
9.155488333E0,5.596112823E0,-7.825277252E0,6.301895142E-1,9.640984474E0
9.165447333E0,5.535039825E0,-8.055498505E0,3.576063538E-1,9.780368313E0
9.175407333E0,5.285359039E0,-8.222251740E0,3.068618774E-1,9.779294865E0
9.185367333E0,5.124144287E0,-8.147557068E0,5.423222351E-1,9.640210281E0
9.195326333E0,5.207221527E0,-8.012837219E0,8.747808838E-1,9.596142867E0
9.205286333E0,5.496569824E0,-7.892487488E0,1.185534668E0,9.690672372E0
9.215246334E0,5.804479523E0,-7.942633209E0,1.240171051E0,9.915413711E0
9.225205333E0,5.485792236E0,-8.381071472E0,9.315129089E-1,1.006001947E1
9.235165333E0,5.370831299E0,-7.824079742E0,4.956193542E-1,9.503035894E0
9.245125333E0,5.399571533E0,-8.550519104E0,7.982899475E-1,1.014416170E1
9.255084333E0,5.472469940E0,-8.897198181E0,1.126257935E0,1.050602302E1
9.265044333E0,5.522016907E0,-8.824000397E0,1.595083008E0,1.053090421E1
9.275004333E0,6.059698792E0,-8.537196808E0,1.948049011E0,1.064887664E1
9.284963334E0,5.993237000E0,-7.832911377E0,1.857786713E0,1.003617267E1
9.294923333E0,5.626200256E0,-7.239994354E0,1.643133087E0,9.315123935E0
9.304883333E0,4.390220490E0,-6.730004883E0,1.212029572E0,8.126254817E0
9.314842333E0,3.590583344E0,-6.930737457E0,1.090632019E0,7.881426816E0
9.324802333E0,3.563040619E0,-7.638316040E0,1.266067200E0,8.523030948E0
9.334762333E0,4.111949158E0,-8.382568359E0,1.141526184E0,9.406309595E0
9.344722333E0,5.013674011E0,-8.859326935E0,6.496490479E-1,1.020032572E1
9.354681333E0,5.850284271E0,-9.081015930E0,3.064128113E-1,1.080669076E1
9.364641333E0,6.138285370E0,-8.902137909E0,2.847079468E-1,1.081700815E1
9.374601333E0,5.944288788E0,-8.316705322E0,4.213737488E-1,1.023131040E1
9.384560333E0,6.106401672E0,-8.220006409E0,8.352630615E-1,1.027396278E1
9.394520334E0,6.169420624E0,-8.287815399E0,9.488768005E-1,1.037545190E1
9.404480333E0,6.168971558E0,-8.228538666E0,7.631130981E-1,1.031248759E1
9.414439333E0,5.828729095E0,-8.079598389E0,4.562512207E-1,9.973071652E0
9.424399333E0,4.855453033E0,-7.985144806E0,1.742376709E-1,9.347102251E0
9.434359333E0,3.773502960E0,-7.993976440E0,1.601669312E-1,8.841302922E0
9.444318333E0,3.343596954E0,-8.054750061E0,4.816983032E-1,8.734453182E0
9.454278333E0,4.634512482E0,-8.736582184E0,8.511300659E-1,9.926278083E0
9.464238334E0,8.374784546E0,-9.486971741E0,4.617897034E-1,1.266305250E1
9.474197333E0,1.036908737E1,-9.380093994E0,-2.975811768E-1,1.398544568E1
9.484157333E0,7.326963501E0,-8.019573212E0,3.920347595E-1,1.086975804E1
9.494117333E0,5.902226257E0,-7.646099854E0,6.454577637E-1,9.680688689E0
9.504076333E0,4.994962921E0,-7.516619110E0,7.152127075E-1,9.053217475E0
9.514036333E0,4.399351501E0,-7.803722076E0,1.404828644E0,9.067850649E0
9.523996333E0,3.896247711E0,-8.185727692E0,2.043849792E0,9.293234423E0
9.533955334E0,3.566483459E0,-8.239915009E0,2.263143768E0,9.259472087E0
9.543915333E0,3.559597778E0,-8.093818817E0,2.117496643E0,9.091998208E0
9.553875333E0,3.731440430E0,-7.934849396E0,1.905088348E0,8.973006421E0
9.563834333E0,4.161795502E0,-8.823401642E0,1.426084442E0,9.859344561E0
9.573794333E0,3.234922943E0,-8.533005524E0,1.897005157E0,9.320704817E0
9.583754333E0,3.892056427E0,-8.521928558E0,2.703378296E0,9.750878104E0
9.593713333E0,5.196294250E0,-8.777447205E0,2.553090820E0,1.051490970E1
9.603673333E0,5.718558197E0,-8.774902496E0,3.927832031E-1,1.048117838E1
9.613633333E0,6.212980042E0,-8.729097748E0,-2.787054291E0,1.107095028E1
9.623592333E0,6.524631958E0,-9.235794067E0,-1.914369049E0,1.146889372E1
9.633552333E0,5.041815491E0,-9.861343231E0,3.652404785E-1,1.108148882E1
9.643512334E0,4.831802216E0,-8.904682617E0,1.326391754E0,1.021758290E1
9.653471333E0,4.216581573E0,-7.425009613E0,4.659809875E-1,8.551459887E0
9.663431333E0,3.275787964E0,-7.298822021E0,-1.697470093E-1,8.002024977E0
9.673391333E0,3.106190643E0,-8.035140839E0,3.068618774E-2,8.614688053E0
9.683350333E0,3.756288757E0,-8.392597504E0,7.912545776E-1,9.228839683E0
9.693310333E0,4.609963531E0,-8.734486542E0,1.600471802E0,1.000522508E1
9.703270333E0,5.180127869E0,-9.200766907E0,2.111060028E0,1.076774864E1
9.713229334E0,5.824537811E0,-9.430539093E0,1.990410919E0,1.126152938E1
9.723189333E0,6.008355560E0,-9.143885193E0,1.378932495E0,1.102780249E1
9.733149333E0,6.049070892E0,-8.630602570E0,9.270222473E-1,1.058007229E1
9.743108333E0,6.058650970E0,-8.186925201E0,8.574169922E-1,1.022096667E1
9.753068333E0,5.912105713E0,-8.068820801E0,1.093625793E0,1.006254841E1
9.763028333E0,5.912255402E0,-8.059839478E0,1.052461395E0,1.005104230E1
9.772987333E0,5.596711578E0,-7.832312622E0,7.244934082E-1,9.653662113E0
9.782947333E0,5.183421021E0,-7.990683289E0,7.602690125E-1,9.554940181E0
9.792907333E0,4.982987823E0,-8.388855286E0,8.324189758E-1,9.792649386E0
9.802866333E0,5.002147980E0,-8.478668518E0,1.080902252E0,9.903416276E0
9.812826333E0,5.048551483E0,-8.208630066E0,1.409319305E0,9.739387072E0
9.822786334E0,5.089865570E0,-7.796986084E0,1.760489044E0,9.476235813E0
9.832745333E0,5.216352539E0,-7.259902954E0,2.126477966E0,9.189038756E0
9.842705333E0,5.414989471E0,-6.717131653E0,2.608176270E0,9.013575987E0
9.852665333E0,5.515131226E0,-6.598877563E0,3.187172241E0,9.171691470E0
9.862624333E0,5.698649597E0,-7.181466064E0,3.772155762E0,9.913486831E0
9.872584333E0,5.722150726E0,-7.759563904E0,3.908522186E0,1.040338342E1
9.882544333E0,5.358107758E0,-7.845634918E0,3.501368866E0,1.012535876E1
9.892503334E0,5.035528564E0,-8.193062439E0,2.882106628E0,1.003939035E1
9.902463333E0,5.045557709E0,-8.435558167E0,2.224524078E0,1.007793637E1
9.912423333E0,4.916975098E0,-8.446036377E0,1.404379578E0,9.873421727E0
9.922382333E0,5.148693237E0,-8.138725433E0,4.971162415E-1,9.643392468E0
9.932342333E0,5.674100647E0,-7.827971649E0,-1.422042847E-2,9.668131180E0
9.942302333E0,5.999972992E0,-7.981851654E0,2.799179077E-2,9.985510266E0
9.952261333E0,6.090384979E0,-8.099057922E0,4.426295471E-1,1.014314790E1
9.962221334E0,5.981112213E0,-8.103548584E0,1.130299530E0,1.013502738E1
9.972181333E0,5.523663483E0,-8.526269531E0,1.723366241E0,1.030427686E1
9.982140333E0,5.085823975E0,-8.738228760E0,1.951940918E0,1.029719965E1
9.992100333E0,5.240602112E0,-8.382867737E0,1.774260406E0,1.004412176E1
1.000206033E1,4.729714508E0,-8.298143921E0,8.888516235E-1,9.592676846E0
1.001201933E1,4.780309296E0,-8.415499878E0,-5.135820007E-1,9.692046308E0
1.002197933E1,4.857997742E0,-9.117989044E0,-6.406677246E-1,1.035124734E1
1.003193933E1,4.037254486E0,-1.023631348E1,2.103126526E-1,1.100571528E1
1.004189833E1,3.399430847E0,-9.640402679E0,7.035369873E-1,1.024638757E1
1.005185833E1,3.496728516E0,-8.843010864E0,5.610333252E-1,9.525791823E0
1.006181833E1,3.583997040E0,-8.195906525E0,3.986210632E-1,8.954150842E0
1.007177733E1,4.673581238E0,-6.973548431E0,1.398841095E0,8.510552022E0
1.008173733E1,2.883902893E0,-8.813971252E0,1.698218536E0,9.427986600E0
1.009169633E1,3.521277466E0,-9.862091675E0,-5.598358154E-1,1.048683286E1
1.010165633E1,4.829556885E0,-9.393266602E0,-1.955982513E0,1.074169189E1
1.011161633E1,5.820795593E0,-8.650660858E0,-1.685794373E0,1.056207827E1
1.012157533E1,6.546037445E0,-8.252488861E0,-1.152603149E-2,1.053348525E1
1.013153533E1,5.861959991E0,-8.308771820E0,1.118174744E0,1.022978880E1
1.014149533E1,5.249583435E0,-8.763825531E0,1.578018494E0,1.033696796E1
1.015145396E1,5.475763092E0,-8.659941559E0,1.651665344E0,1.037817747E1
1.016141396E1,5.411247253E0,-8.431366882E0,1.827699280E0,1.018381211E1
1.017137396E1,5.657485199E0,-8.616232452E0,1.964664459E0,1.049316477E1
1.018133296E1,6.102360077E0,-8.538394318E0,1.966011658E0,1.067746121E1
1.019129296E1,5.812263336E0,-8.277935944E0,1.781894531E0,1.027043216E1
1.020125296E1,5.290298767E0,-7.935298462E0,1.331930237E0,9.629655284E0
1.021121196E1,4.557422791E0,-7.400310974E0,1.372196503E0,8.798728786E0
1.022117196E1,3.919449463E0,-7.414232025E0,1.486708374E0,8.517230912E0
1.023113196E1,3.397335205E0,-8.162376251E0,1.345252533E0,8.942928879E0
1.024109096E1,3.463497620E0,-8.463549957E0,1.186133423E0,9.221410203E0
1.025105096E1,3.800746307E0,-8.852441254E0,1.212179260E0,9.709828382E0
1.026101096E1,4.446204071E0,-8.976084137E0,1.354233856E0,1.010805453E1
1.027096996E1,5.245841217E0,-8.477770386E0,1.293759613E0,1.005312164E1
1.028092996E1,5.601501617E0,-7.867938538E0,9.952803040E-1,9.709369706E0
1.029088996E1,5.405559082E0,-7.941735077E0,4.992118835E-1,9.619794048E0
1.030084896E1,4.864883423E0,-8.629704437E0,4.405339050E-1,9.916297672E0
1.031080896E1,4.726121979E0,-9.128317566E0,1.160237274E0,1.034449424E1
1.032076896E1,4.880451050E0,-9.045240326E0,1.778601379E0,1.043065664E1
1.033072796E1,5.240003357E0,-7.910450134E0,1.783541107E0,9.654733315E0
1.034068796E1,6.254294128E0,-6.782246246E0,1.379830627E0,9.328397062E0
1.035064796E1,6.707551575E0,-7.866741028E0,1.195713501E0,1.040704537E1
1.036060696E1,5.917195129E0,-8.452922058E0,7.258406067E-1,1.034369055E1
1.037056696E1,5.222489777E0,-9.368867340E0,4.923262024E-1,1.073743264E1
1.038052596E1,4.847968597E0,-1.009934830E1,7.054829407E-1,1.122485375E1
1.039048596E1,4.789140930E0,-9.332193604E0,7.782316589E-1,1.051814398E1
1.040044596E1,4.242028656E0,-8.373137970E0,6.601272583E-1,9.409570372E0
1.041040496E1,3.728446655E0,-8.058941345E0,1.015188904E0,8.937474955E0
1.042036496E1,4.164340210E0,-8.165669403E0,1.549427948E0,9.296268776E0
1.043032496E1,4.700375519E0,-8.077053680E0,1.824855194E0,9.521681714E0
1.044028396E1,5.437742157E0,-7.677235107E0,1.784139862E0,9.575600958E0
1.045024396E1,5.957162018E0,-7.857759705E0,1.651815033E0,9.998032796E0
1.046020396E1,6.084696808E0,-7.890691223E0,1.410067749E0,1.006353985E1
1.047016296E1,6.247558136E0,-8.239615631E0,1.043031006E0,1.039284187E1
1.048012296E1,6.080206146E0,-8.954379272E0,9.824070740E-1,1.086806968E1
1.049008296E1,5.453758850E0,-8.995244293E0,8.964857483E-1,1.055753722E1
1.050004196E1,4.389621735E0,-8.826844482E0,9.211843872E-1,9.901037479E0
1.051000196E1,4.090693359E0,-8.784781952E0,9.461824036E-1,9.736602449E0
1.051996196E1,4.214485931E0,-8.758287048E0,7.378157043E-1,9.747505101E0
1.052992096E1,4.052672424E0,-8.669821014E0,4.746629333E-1,9.582027713E0
1.053988096E1,4.203109589E0,-8.619375916E0,6.083349609E-1,9.608841908E0
1.054984096E1,4.473746796E0,-8.807085571E0,8.258326721E-1,9.912677048E0
1.055979996E1,4.575235748E0,-9.008566589E0,1.028810577E0,1.015605757E1
1.056975996E1,4.581971741E0,-8.964408417E0,1.066382446E0,1.012384585E1
1.057971896E1,4.578977966E0,-8.824748840E0,9.095086670E-1,9.983508267E0
1.058967896E1,4.468956757E0,-8.738228760E0,7.551795959E-1,9.843704210E0
1.059963896E1,4.690645752E0,-8.016729126E0,7.646099854E-1,9.319588611E0
1.060959796E1,4.433929596E0,-7.297325134E0,1.116079102E0,8.611406293E0
1.061955796E1,4.316423950E0,-6.929689636E0,1.216520233E0,8.254213206E0
1.062951796E1,4.308939514E0,-6.718778229E0,1.342558136E0,8.093911475E0
1.063947696E1,4.428690491E0,-6.932234344E0,1.498234406E0,8.361451955E0
1.064943696E1,4.490661621E0,-7.381300507E0,1.832639008E0,8.832225354E0
1.065939696E1,4.849016418E0,-7.714208221E0,2.147883453E0,9.361376610E0
1.066935596E1,5.217849426E0,-7.981402588E0,2.290686493E0,9.806935531E0
1.067931596E1,5.270090790E0,-8.067922668E0,2.123334503E0,9.867815489E0
1.068927596E1,4.667144623E0,-8.941206665E0,1.566043396E0,1.020685591E1
1.069923496E1,4.381837921E0,-9.236841888E0,1.214574280E0,1.029538452E1
1.070919496E1,4.586312714E0,-9.674082642E0,6.490502930E-1,1.072582890E1
1.071915496E1,5.098547516E0,-9.659562836E0,-2.264790344E-1,1.092490886E1
1.072911396E1,5.749543762E0,-9.351054382E0,-1.105151825E0,1.103271644E1
1.073907396E1,6.464606781E0,-9.168434143E0,-1.178199921E0,1.128004790E1
1.074903396E1,6.846612396E0,-8.947792969E0,-3.532653809E-1,1.127226227E1
1.075899296E1,6.788233795E0,-8.579259338E0,5.445675659E-1,1.095355480E1
1.076895296E1,6.603817291E0,-8.436456299E0,1.188678131E0,1.077947835E1
1.077891296E1,5.892197113E0,-8.859476624E0,1.200952606E0,1.070750204E1
1.078887196E1,5.747148743E0,-8.574169922E0,9.120533752E-1,1.036233323E1
1.079883196E1,5.885461121E0,-7.866890717E0,1.212927704E0,9.899384615E0
1.080879096E1,5.515879669E0,-7.836952972E0,1.425186310E0,9.688855270E0
1.081875096E1,4.816683655E0,-8.382718048E0,5.631289673E-1,9.684395569E0
1.082871096E1,5.212161255E0,-8.066126404E0,-2.844085693E-3,9.603594546E0
1.083866996E1,5.589825897E0,-8.174051971E0,-4.370910645E-2,9.902685983E0
1.084862996E1,6.134393463E0,-7.763904877E0,7.200027466E-2,9.895159733E0
1.085858996E1,6.080804901E0,-7.781717834E0,1.908531189E-1,9.877638666E0
1.086854896E1,5.730832672E0,-8.373587036E0,1.122665405E-2,1.014689751E1
1.087850896E1,5.393883362E0,-8.494385834E0,-3.263214111E-1,1.006752472E1
1.088846896E1,4.576433258E0,-8.684041443E0,-1.157991943E0,9.884192556E0
1.089842796E1,4.203259277E0,-7.576644287E0,-1.118025055E0,8.736298257E0
1.090838796E1,3.463347931E0,-7.292834473E0,-6.698570251E-1,8.101167939E0
1.091834796E1,1.809137878E0,-7.010072479E0,-8.821156311E-1,7.293299940E0
1.092830696E1,2.930905151E-1,-6.988517303E0,-1.194216614E0,7.095874116E0
1.093826696E1,-5.469625854E-1,-7.598199463E0,-6.361770630E-1,7.644378615E0
1.094822696E1,-7.294331360E-1,-8.689729614E0,5.525010681E-1,8.737776084E0
1.095818596E1,4.471202087E-1,-9.680818634E0,1.929936676E0,9.881438229E0
1.096814596E1,1.585802307E0,-1.019649628E1,2.386038208E0,1.059134003E1
1.097810496E1,6.182144165E-1,-9.415869598E0,2.038910065E0,9.653908204E0
1.098806496E1,-3.296145630E-1,-9.000333710E0,9.327104187E-1,9.054534851E0
1.099802496E1,-1.435514832E-1,-8.454718323E0,1.240919495E-1,8.456847389E0
1.100798396E1,2.173480225E-1,-8.147856445E0,-4.752616882E-1,8.164599102E0
1.101794396E1,7.467970276E-1,-8.017776947E0,-5.782475281E-1,8.073216408E0
1.102790396E1,1.320853271E0,-7.917784882E0,-4.596940613E-1,8.040353812E0
1.103786296E1,2.508333893E0,-7.315138092E0,-4.646337891E-1,7.747184571E0
1.104782296E1,3.826343079E0,-7.148384857E0,-6.306385803E-1,8.132528047E0
1.105778296E1,5.176086273E0,-7.347620544E0,-5.378315735E-1,9.003813613E0
1.106774196E1,5.902675323E0,-7.659571838E0,-2.173480225E-1,9.672531049E0
1.107770196E1,6.625971222E0,-8.467142487E0,7.161108398E-1,1.077537987E1
1.108766196E1,7.094646606E0,-9.184600525E0,1.822759552E0,1.174790831E1
1.109762096E1,7.541766815E0,-9.795031128E0,2.945424957E0,1.270812377E1
1.110758096E1,8.252638550E0,-9.665400696E0,3.702999573E0,1.323775734E1
1.111754096E1,8.508755951E0,-1.003827530E1,3.959566040E0,1.374205451E1
1.112749996E1,8.785081329E0,-1.068193680E1,3.962410126E0,1.438687324E1
1.113745996E1,8.875343628E0,-1.180340469E1,3.204985199E0,1.511171787E1
1.114741971E1,8.791967010E0,-1.240545273E1,1.818418579E0,1.531341201E1
1.115737971E1,9.099727020E0,-1.342722794E1,3.650907898E-1,1.622432659E1
1.116733971E1,9.486672363E0,-1.429497345E1,-7.993377686E-1,1.717504467E1
1.117729871E1,9.038953400E0,-1.335852081E1,-1.748963013E0,1.622379821E1
1.118725871E1,6.620133362E0,-1.096080688E1,-2.089504852E0,1.297426236E1
1.119721871E1,4.228556671E0,-8.937763824E0,-1.544637909E0,1.000750818E1
1.120717771E1,2.939886475E0,-8.094417572E0,-8.780740356E-1,8.656416252E0
1.121713771E1,2.569107513E0,-7.800877991E0,-3.508703613E-1,8.220530448E0
1.122709771E1,2.110910339E0,-7.757318573E0,2.474354553E-1,8.043205717E0
1.123705671E1,1.728006592E0,-8.010591888E0,7.161108398E-1,8.226080714E0
1.124701671E1,1.580263824E0,-8.322094116E0,1.031504974E0,8.533374874E0
1.125697671E1,1.438358917E0,-8.603957977E0,1.139131165E0,8.797419455E0
1.126693571E1,1.290466461E0,-8.909472656E0,1.229992218E0,9.086082080E0
1.127689571E1,1.139879608E0,-9.171278229E0,1.261426849E0,9.327532770E0
1.128685471E1,1.110091553E0,-9.294921112E0,1.384920044E0,9.462867708E0
1.129681471E1,1.039288788E0,-9.405391388E0,1.576222229E0,9.593017505E0
1.130677471E1,8.617579651E-1,-9.527088318E0,1.848206635E0,9.742890042E0
1.131673371E1,7.393125916E-1,-9.657616882E0,1.967658234E0,9.883715186E0
1.132669371E1,5.161267090E-1,-9.857151947E0,2.134261780E0,1.009875758E1
1.133665371E1,2.603086853E-1,-1.009366013E1,2.368674316E0,1.037113077E1
1.134661271E1,2.782713318E-1,-1.005069946E1,2.535876617E0,1.036941005E1
1.135657271E1,6.340814209E-1,-9.716294861E0,2.672243042E0,1.009699599E1
1.136653271E1,9.524693298E-1,-9.462871857E0,2.719694366E0,9.891909778E0
1.137649171E1,1.091829529E0,-9.429491272E0,2.822380829E0,9.903192965E0
1.138645171E1,1.176253967E0,-9.337881775E0,2.767145691E0,9.810030821E0
1.139641171E1,1.981429596E0,-9.065747681E0,2.816542969E0,9.697770803E0
1.140637071E1,2.903811493E0,-8.397686920E0,2.562670898E0,9.247732097E0
1.141633071E1,3.370989990E0,-8.319549408E0,2.584375763E0,9.341170909E0
1.142628971E1,3.617826691E0,-8.720266113E0,2.852468262E0,9.862468567E0
1.143624971E1,3.788022766E0,-8.910520477E0,3.063379669E0,1.015533292E1
1.144620971E1,3.735482025E0,-9.199868774E0,3.050805817E0,1.038743604E1
1.145616871E1,3.683689728E0,-9.149124298E0,3.001408539E0,1.030943736E1
1.146612871E1,3.517235870E0,-8.746910706E0,3.058889008E0,9.911417508E0
1.147608871E1,2.779120789E0,-8.894653473E0,3.193010101E0,9.850567814E0
1.148604771E1,1.829794922E0,-9.731114044E0,3.376378784E0,1.046148477E1
1.149600771E1,1.302740936E0,-1.058568695E1,3.524570618E0,1.123283135E1
1.150596771E1,1.556163940E0,-1.052820648E1,3.378175049E0,1.116587859E1
1.151592671E1,2.010020142E0,-9.932445374E0,3.128793640E0,1.060580038E1
1.152588671E1,2.433788910E0,-9.302854614E0,2.972668304E0,1.006494855E1
1.153584671E1,2.562521210E0,-8.688831482E0,2.829715576E0,9.490500393E0
1.154580571E1,2.381996613E0,-8.602012024E0,3.215463409E0,9.487240044E0
1.155576571E1,1.661694489E0,-8.369695129E0,3.289559326E0,9.145174995E0
1.156572471E1,7.535330200E-1,-8.997190247E0,3.490740967E0,9.680006035E0
1.157568471E1,3.471281433E-1,-1.013467484E1,3.279829559E0,1.065783345E1
1.158564471E1,1.014889526E-1,-1.092592941E1,2.955005035E0,1.131893495E1
1.159560371E1,-3.878434753E-1,-1.133622620E1,2.392175446E0,1.159236604E1
1.160556371E1,2.216889954E-1,-1.115510284E1,1.979783020E0,1.133159328E1
1.161552371E1,1.356179810E0,-1.045096710E1,1.873504028E0,1.070382896E1
1.162548271E1,1.786085815E0,-9.598489838E0,2.016307068E0,9.969283018E0
1.163544271E1,1.540895691E0,-8.787775726E0,2.105072479E0,9.166825617E0
1.164540271E1,9.693841553E-1,-8.291707306E0,2.104174347E0,8.609277866E0
1.165536171E1,-2.038760376E-1,-8.327782288E0,1.882485352E0,8.540332216E0
1.166532171E1,-1.458267517E0,-9.126820679E0,1.549128571E0,9.371509973E0
1.167528171E1,-1.970352631E0,-9.720486145E0,8.946894836E-1,9.958444138E0
1.168524071E1,-1.310375061E0,-9.739945679E0,2.076182556E-1,9.829889621E0
1.169520071E1,-1.088237000E0,-9.749376068E0,-4.040098572E-1,9.818239020E0
1.170515971E1,2.212399292E-1,-9.469458160E0,-1.984872437E-1,9.474121708E0
1.171511971E1,1.418150940E0,-8.865763550E0,1.034498749E0,9.037870494E0
1.172507971E1,1.675765228E0,-8.563691711E0,2.048340454E0,8.963297576E0
1.173503871E1,1.770368500E0,-8.794811096E0,2.761607208E0,9.386659747E0
1.174499871E1,2.116748199E0,-9.498497772E0,2.875220947E0,1.014736312E1
1.175495871E1,1.933828583E0,-9.824370117E0,2.129920807E0,1.023691867E1
1.176491771E1,2.405198364E0,-1.015817596E1,1.669627991E0,1.057171584E1
1.177487771E1,2.997965698E0,-1.002510269E1,1.356030121E0,1.055127007E1
1.178483771E1,3.393293610E0,-9.582772522E0,1.850302277E0,1.033284033E1
1.179479671E1,4.000880127E0,-9.453291779E0,2.175426178E0,1.049305705E1
1.180475671E1,3.861669617E0,-9.189689941E0,2.265987854E0,1.022240649E1
1.181471671E1,3.665128326E0,-9.176517334E0,2.397115173E0,1.016797901E1
1.182467571E1,3.134781189E0,-9.098679199E0,2.146835632E0,9.860107479E0
1.183463571E1,2.632874908E0,-9.224717102E0,2.046394501E0,9.808932987E0
1.184459571E1,2.700085144E0,-9.753866730E0,1.798659668E0,1.027927782E1
1.185455471E1,2.550396423E0,-9.698481903E0,1.442699890E0,1.013145874E1
1.186451471E1,2.217638397E0,-1.040531204E1,1.094074860E0,1.069511284E1
1.187447371E1,1.873054962E0,-1.157991943E1,9.433383179E-1,1.176829453E1
1.188443371E1,2.041305084E0,-1.144939087E1,9.687854004E-1,1.167021949E1
1.189439371E1,1.594484253E0,-1.139265884E1,5.183720398E-1,1.151537082E1
1.190435271E1,1.893262939E0,-1.136616394E1,2.257305908E-1,1.152497642E1
1.191431271E1,1.648072815E0,-9.664352875E0,3.724255371E-1,9.810940896E0
1.192427271E1,1.643731842E0,-9.183702393E0,5.162763977E-1,9.343917022E0
1.193423171E1,2.362387390E0,-9.482032013E0,6.948550415E-1,9.796562091E0
1.194419171E1,2.782413940E0,-9.851463776E0,1.235979767E0,1.031119837E1
1.195415171E1,2.967578888E0,-1.014829651E1,1.628014526E0,1.069789128E1
1.196411071E1,3.337010651E0,-1.042821442E1,1.946552124E0,1.112080758E1
1.197407071E1,3.442840576E0,-1.073178314E1,2.377356262E0,1.151851307E1
1.198403071E1,3.311713257E0,-1.084434906E1,2.681972809E0,1.165162347E1
1.199398971E1,2.929258575E0,-1.137514526E1,2.496508484E0,1.200862358E1
1.200394971E1,2.859503632E0,-1.150043472E1,2.081421661E0,1.203200216E1
1.201390871E1,2.789299622E0,-1.158201508E1,1.963466949E0,1.207387544E1
1.202386871E1,1.970202942E0,-1.166599045E1,1.939666443E0,1.198913419E1
1.203382871E1,1.334175568E0,-1.159443924E1,1.819017334E0,1.181185294E1
1.204378771E1,5.005590820E-1,-1.177256882E1,1.805096283E0,1.192066729E1
1.205374771E1,-6.001020813E-1,-1.190773773E1,1.932032318E0,1.207837279E1
1.206370771E1,6.691085815E-2,-1.223390945E1,2.727178802E0,1.253437361E1
1.207366671E1,1.503623199E0,-1.204155945E1,2.701132965E0,1.243206161E1
1.208362671E1,9.496252441E-1,-1.188184158E1,1.215472412E0,1.198154083E1
1.209358671E1,5.349874878E-1,-1.143053009E1,5.607339478E-1,1.145677321E1
1.210354571E1,-3.342549133E-1,-1.122201370E1,4.095483398E-1,1.123445805E1
1.211350571E1,-1.192570038E0,-1.115210907E1,2.498304749E-1,1.121847473E1
1.212346571E1,-1.545236664E0,-1.103864502E1,3.397933960E-1,1.115145281E1
1.213342471E1,-2.253114624E0,-1.054377411E1,6.155200195E-1,1.079937789E1
1.214338471E1,-2.952759705E0,-1.079270645E1,9.759704590E-1,1.123182179E1
1.215334471E1,-3.282973022E0,-1.095362183E1,1.410965881E0,1.152174326E1
1.216330371E1,-3.616030426E0,-1.062745010E1,1.729952545E0,1.135830566E1
1.217326371E1,-3.561244354E0,-1.053584061E1,1.757495270E0,1.125944884E1
1.218322271E1,-2.900368652E0,-1.081905167E1,2.009421387E0,1.137988539E1
1.219318271E1,-2.131567383E0,-9.750124512E0,2.279310150E0,1.023737087E1
1.220314271E1,-1.990261230E0,-8.831035767E0,2.302960968E0,9.340875853E0
1.221310171E1,-1.876348114E0,-8.104147339E0,2.318977661E0,8.635713273E0
1.222306171E1,-1.772763519E0,-7.465874634E0,2.127525787E0,7.962935421E0
1.223302171E1,-1.817221069E0,-7.389982452E0,1.828896790E0,7.826812667E0
1.224298071E1,-1.793270874E0,-7.693401489E0,1.395398254E0,8.021931388E0
1.225294071E1,-1.918260956E0,-8.770561523E0,1.016236725E0,9.035220618E0
1.226290071E1,-1.822160797E0,-8.717721405E0,4.824467468E-1,8.919175485E0
1.227285971E1,-1.781445465E0,-8.871451721E0,1.191522217E-1,9.049331513E0
1.228281971E1,-1.592089233E0,-9.319020996E0,-1.116677856E-1,9.454700955E0
1.229277971E1,-1.300046539E0,-9.173224182E0,-1.986369324E-1,9.267017834E0
1.230273871E1,-8.506809998E-1,-9.357341309E0,-5.766009521E-1,9.413605217E0
1.231269871E1,-5.795947266E-1,-8.760233002E0,-1.030606842E0,8.839669833E0
1.232265871E1,-3.231779480E-1,-8.034991150E0,-1.589394836E0,8.197054514E0
1.233261771E1,-1.706451416E-1,-7.540569305E0,-2.133064270E0,7.838320509E0
1.234257771E1,-2.392025757E-1,-7.435637512E0,-2.599344635E0,7.880514933E0
1.235253671E1,-5.698649597E-1,-7.336992645E0,-3.013084259E0,7.952036463E0
1.236249671E1,-1.119821320E0,-7.250622253E0,-3.154839478E0,7.986146441E0
1.237245671E1,-7.303312683E-1,-7.673792267E0,-2.991978149E0,8.268760776E0
1.238241571E1,-9.084608459E-1,-6.827003174E0,-2.405647430E0,7.295232210E0
1.239237571E1,-1.174158325E0,-6.137836304E0,-2.135459290E0,6.603928273E0
1.240233571E1,-1.055155792E0,-5.727539520E0,-1.865271149E0,6.115333119E0
1.241229471E1,-1.252445526E0,-5.760770416E0,-9.969268799E-1,5.979043300E0
1.242225471E1,-3.216211853E0,-5.410947876E0,6.436614990E-1,6.327454127E0
1.243221471E1,-7.220534821E0,-5.223687286E0,3.227737885E0,9.478466322E0
1.244217371E1,-7.574099579E0,-5.621110840E0,2.515219574E0,9.761669991E0
1.245213371E1,1.711091766E0,-1.363724121E1,-1.937720490E0,1.388009163E1
1.246209371E1,6.530769196E0,-1.423015823E1,-3.545976105E0,1.605373153E1
1.247205271E1,6.451134796E0,-1.253388565E1,-2.690205688E0,1.435105001E1
1.248201271E1,3.021766205E0,-1.186522614E1,-2.213896179E-1,1.224596569E1
1.249197271E1,2.417772217E0,-1.147319138E1,3.348237305E0,1.219386878E1
1.250193171E1,2.572400665E0,-1.087383774E1,3.972439270E0,1.185908370E1
1.251189171E1,2.031275940E0,-9.742490387E0,-1.110690308E-1,9.952614592E0
1.252185171E1,1.607058105E0,-9.044491882E0,-2.674638062E0,9.567609833E0
1.253181071E1,1.089733887E0,-8.556806030E0,-3.512595520E0,9.313687598E0
1.254177071E1,1.405726776E0,-8.359665985E0,-3.048261108E0,9.008439317E0
1.255173071E1,2.036814423E0,-8.351283417E0,-1.567091217E0,8.737752719E0
1.256168971E1,1.572180634E0,-7.502548370E0,-3.906875610E-2,7.665605675E0
1.257164971E1,1.659449158E0,-7.332352295E0,6.867718506E-1,7.549093804E0
1.258160971E1,1.898801422E0,-6.564449158E0,1.360969849E0,6.967759935E0
1.259156871E1,1.330882416E0,-6.766977997E0,2.203417969E0,7.240047649E0
1.260152871E1,5.005590820E-1,-7.594307556E0,2.285746765E0,7.946615942E0
1.261148771E1,-5.930667114E-1,-8.654253387E0,1.723366241E0,8.844083956E0
1.262144771E1,-1.233584747E0,-9.977651367E0,7.203021240E-1,1.007938953E1
1.263140771E1,-1.133442993E0,-1.131691635E1,-6.586303711E-3,1.137353648E1
1.264136671E1,-2.522254944E-1,-1.253208939E1,-1.351689148E-1,1.253535611E1
1.265132671E1,1.134041748E0,-1.321736435E1,1.047821045E-2,1.326592932E1
1.266128671E1,2.869832153E0,-1.348111588E1,5.475613403E-1,1.379406558E1
1.267124571E1,3.788471832E0,-1.382794464E1,1.619182892E0,1.442866332E1
1.268120571E1,3.936513977E0,-1.398871033E1,1.741927643E0,1.463606746E1
1.269116571E1,3.741020508E0,-1.352168152E1,9.454339600E-1,1.406147044E1
1.270112471E1,3.183579712E0,-1.297831146E1,-6.735992432E-1,1.338004051E1
1.271108471E1,2.676284637E0,-1.178963333E1,-2.423310699E0,1.233006035E1
1.272104471E1,1.873803406E0,-1.052805679E1,-2.635120239E0,1.101339992E1
1.273100371E1,4.358935547E-1,-9.359287262E0,-2.251018982E0,9.636044194E0
1.274096371E1,-9.493258667E-1,-8.217312012E0,-1.713486786E0,8.447572034E0
1.275092371E1,-1.218316498E0,-6.761738892E0,-8.348139954E-1,6.921150362E0
1.276088271E1,-1.471889191E0,-6.365662537E0,6.466552734E-1,6.565537325E0
1.277084271E1,-1.587448883E0,-6.901847534E0,2.268682251E0,7.436559184E0
1.278080271E1,-1.604663086E-1,-6.517746277E0,3.062780914E0,7.203290421E0
1.279076171E1,-2.116598511E-1,-8.833730164E0,4.004472656E0,9.701308662E0
1.280072171E1,-7.604187012E-1,-1.114073273E1,4.549788666E0,1.205797409E1
1.281068171E1,-6.878196716E-1,-1.119896164E1,4.284689941E0,1.201034577E1
1.282064071E1,-1.597627716E0,-1.154399414E1,3.929628296E0,1.229870699E1
1.283060071E1,-1.936822357E0,-1.118878281E1,3.149151306E0,1.178377255E1
1.284055971E1,-2.259700928E0,-1.022793091E1,2.006726990E0,1.066507253E1
1.285051971E1,-2.510878601E0,-8.914711761E0,4.333488464E-1,9.271698246E0
1.286047971E1,-3.101849670E0,-8.233029327E0,-4.022135925E-1,8.807157263E0
1.287043871E1,-3.315455475E0,-8.636290741E0,-1.826202393E-1,9.252627352E0
1.288039871E1,-3.088976440E0,-9.369915161E0,5.842350769E-1,9.883239155E0
1.289035871E1,-2.736609192E0,-9.815239105E0,1.458417206E0,1.029344108E1
1.290031771E1,-2.209555206E0,-1.031340317E1,1.472637634E0,1.064974557E1
1.291027771E1,-1.136287079E0,-1.064466431E1,5.496569824E-1,1.071924201E1
1.292023771E1,-6.195616150E-1,-1.076007431E1,-5.096900940E-1,1.078994160E1
1.293019671E1,-5.737568665E-1,-1.042028091E1,-5.258564758E-1,1.044930506E1
1.294015671E1,-1.397044830E0,-9.730664978E0,6.505471802E-1,9.851943301E0
1.295011671E1,-2.214345245E0,-9.100325775E0,1.895059204E0,9.555652959E0
1.296007571E1,-2.686014404E0,-8.687484283E0,2.501148834E0,9.430949159E0
1.297003571E1,-2.188748474E0,-8.513695679E0,2.573149109E0,9.159406658E0
1.297999571E1,-1.775757294E0,-9.286538544E0,2.696791992E0,9.831876684E0
1.298995471E1,-1.458417206E0,-9.504036255E0,2.636168060E0,9.970108722E0
1.299991471E1,-1.698517914E0,-9.869426422E0,2.454595642E0,1.031094471E1
1.300987471E1,-2.271676025E0,-1.038749908E1,2.363285522E0,1.089246380E1
1.301983371E1,-2.466121674E0,-1.039258850E1,2.581381989E0,1.098868440E1
1.302979371E1,-3.343297577E0,-1.037717056E1,2.507735138E0,1.118713740E1
1.303975271E1,-3.517235870E0,-9.733209686E0,2.443219299E0,1.063370300E1
1.304971271E1,-3.712280273E0,-9.683363342E0,2.317780151E0,1.062641310E1
1.305967271E1,-3.524121552E0,-9.770781555E0,1.677561493E0,1.052149312E1
1.306963171E1,-2.756517792E0,-8.986861725E0,8.490344238E-1,9.438375573E0
1.307959171E1,-2.316283264E0,-8.448581085E0,4.379891968E-1,8.771289817E0
1.308955171E1,-1.787433014E0,-8.526568909E0,1.437011719E-2,8.711917162E0
1.309951071E1,-1.701960754E0,-9.604627075E0,6.101312256E-1,9.773320407E0
1.310947071E1,-7.807763672E-1,-9.903854828E0,8.415499878E-1,9.970163417E0
1.311943071E1,-5.035528564E-1,-1.108549759E1,1.631307678E0,1.121619307E1
1.312938971E1,1.314266968E-1,-1.135628448E1,1.288221130E0,1.142987244E1
1.313934971E1,1.551224213E0,-1.024589355E1,1.291065216E0,1.044277170E1
1.314931250E1,1.806892548E0,-1.027403503E1,1.021625519E0,1.048162083E1
1.315927150E1,2.527643738E0,-9.607471161E0,9.180409241E-1,9.976737148E0
1.316923150E1,2.692301331E0,-9.351353760E0,5.876779175E-1,9.748931681E0
1.317919050E1,2.861449585E0,-8.733887787E0,7.110214233E-2,9.190959967E0
1.318915050E1,2.194137268E0,-8.829538879E0,6.810836792E-2,9.098331381E0
1.319911050E1,1.755399628E0,-9.028475189E0,1.561253357E-1,9.198867714E0
1.320906950E1,1.703457642E0,-9.270072784E0,2.888992310E-1,9.429712622E0
1.321902950E1,1.492246857E0,-1.025921585E1,9.575587463E-1,1.041130296E1
1.322898950E1,2.036964111E0,-1.059586578E1,1.656006317E0,1.091622423E1
1.323894850E1,2.099833374E0,-1.087593338E1,2.492317200E0,1.135371622E1
1.324890850E1,1.789528656E0,-1.118504059E1,3.101849670E0,1.174431851E1
1.325886850E1,1.889071655E0,-1.151091293E1,2.951113129E0,1.203240529E1
1.326882750E1,1.927242279E0,-1.162991547E1,2.290237427E0,1.200892935E1
1.327878750E1,1.993105316E0,-1.158441010E1,1.933229828E0,1.191253137E1
1.328874750E1,1.610201569E0,-1.198482742E1,1.378782806E0,1.217086190E1
1.329870650E1,2.781216431E-1,-1.168530029E1,6.342311096E-1,1.170580385E1
1.330866650E1,-8.991801453E-1,-1.172092621E1,1.417552185E-1,1.175622093E1
1.331862550E1,-2.212698669E0,-1.154189850E1,5.806425476E-1,1.176641841E1
1.332858550E1,-2.583477631E0,-1.047102539E1,1.424737244E0,1.087872261E1
1.333854550E1,-2.744842072E0,-1.044033920E1,2.112856293E0,1.099995465E1
1.334850450E1,-3.221301270E0,-1.162317947E1,2.342478790E0,1.228667123E1
1.335846450E1,-3.825744324E0,-1.235904922E1,2.043251038E0,1.309798810E1
1.336842450E1,-4.278702393E0,-1.206985062E1,1.223106537E0,1.286408091E1
1.337838350E1,-4.042792969E0,-1.097757202E1,1.083297272E0,1.174839544E1
1.338834350E1,-2.824626160E0,-8.797655182E0,1.667382660E0,9.389217996E0
1.339830350E1,-2.124232635E0,-9.370364227E0,1.785636749E0,9.772644915E0
1.340826250E1,-1.735790405E0,-9.918374634E0,1.227297821E0,1.014363759E1
1.341822250E1,-1.465602264E0,-9.307494965E0,9.865983582E-1,9.473691405E0
1.342818150E1,-2.017953644E0,-9.236093445E0,1.441502380E0,9.563236280E0
1.343814150E1,-1.639839935E0,-9.631720734E0,1.230141907E0,9.847454921E0
1.344810150E1,-1.309476929E0,-1.009725266E1,8.135581970E-1,1.021426052E1
1.345806050E1,-8.890013123E-1,-1.037043457E1,4.251159668E-1,1.041714741E1
1.346802050E1,-7.020401001E-1,-9.976004791E0,-5.625302124E-1,1.001648502E1
1.347798050E1,-3.409909058E-1,-8.863967285E0,-9.976753235E-1,8.926452088E0
1.348793950E1,2.112107849E-1,-8.482111359E0,-9.355545044E-1,8.536163384E0
1.349789950E1,5.975573730E-1,-8.444689178E0,-6.497987366E-1,8.490706009E0
1.350785950E1,6.331832886E-1,-8.926537170E0,-3.041674805E-1,8.954133391E0
1.351781850E1,4.742138672E-1,-9.310638428E0,-4.691244507E-1,9.334502904E0
1.352777850E1,3.849993896E-1,-9.122479706E0,-7.655081177E-1,9.162634075E0
1.353773750E1,4.581971741E-1,-8.489296417E0,-1.085841980E0,8.570714738E0
1.354769750E1,5.897735596E-1,-8.752748566E0,-1.329086151E0,8.872705918E0
1.355765750E1,9.599537659E-1,-8.296347656E0,-1.159039764E0,8.431741744E0
1.356761650E1,1.877246246E0,-8.129893799E0,-7.632627869E-1,8.378651248E0
1.357757650E1,2.900668030E0,-8.110434265E0,-6.646179199E-1,8.639139770E0
1.358753650E1,3.320993958E0,-8.834628296E0,-2.362088013E-1,9.441157376E0
1.359749550E1,2.822979584E0,-9.379345551E0,5.111869812E-1,9.808294899E0
1.360745550E1,1.796564026E0,-9.784702606E0,8.643026733E-1,9.985743162E0
1.361741450E1,1.097068634E0,-9.339827728E0,7.698490906E-1,9.435497295E0
1.362737450E1,5.051994324E-1,-9.282347260E0,-4.730163574E-2,9.296205385E0
1.363733450E1,6.331832886E-2,-9.354646912E0,-6.408174133E-1,9.376783831E0
1.364729350E1,4.415817261E-1,-9.439819794E0,-2.715353394E-1,9.454042712E0
1.365725350E1,7.511380005E-1,-8.638985138E0,3.996688843E-2,8.671670535E0
1.366721350E1,1.511706390E0,-8.183781738E0,-6.233038330E-1,8.345540571E0
1.367717250E1,2.084265747E0,-8.540040894E0,-3.984713745E-1,8.799729632E0
1.368713250E1,1.473835144E0,-8.985364838E0,4.141886902E-1,9.114851813E0
1.369709250E1,1.334025879E0,-7.732320557E0,1.429377594E0,7.975683453E0
1.370705150E1,2.667153625E0,-8.472082214E0,2.000739441E0,9.104550720E0
1.371701150E1,2.637066193E0,-9.511071625E0,1.655407562E0,1.000774579E1
1.372697050E1,1.194815369E0,-8.976832581E0,8.559201050E-1,9.096356753E0
1.373693050E1,1.234183502E0,-9.110953674E0,3.918850708E-1,9.202513770E0
1.374689050E1,7.662565613E-1,-9.141490173E0,2.122586060E-1,9.176003783E0
1.375684950E1,6.813830566E-1,-8.970395966E0,2.145039368E-1,8.998794285E0
1.376680950E1,1.037492523E0,-8.954828339E0,2.880010986E-1,9.019328464E0
1.377676950E1,9.617500305E-1,-8.905431061E0,-2.073188782E-1,8.959611968E0
1.378672850E1,8.077203369E-1,-8.490793304E0,-6.798861694E-1,8.556180707E0
1.379668850E1,6.098318481E-1,-8.215066681E0,-6.408174133E-1,8.262557861E0
1.380664750E1,6.087840271E-1,-8.707093506E0,-3.712280273E-1,8.736240928E0
1.381660750E1,1.032552795E0,-9.030421143E0,-3.170407104E-1,9.094788953E0
1.382656750E1,1.375489655E0,-9.004674683E0,-5.966592407E-1,9.128643940E0
1.383652650E1,1.695075073E0,-8.869805145E0,-9.565109253E-1,9.080838946E0
1.384648650E1,1.853296051E0,-9.065148926E0,-1.554367676E0,9.382307295E0
1.385644650E1,1.987417145E0,-9.226663055E0,-1.800904999E0,9.608558521E0
1.386640550E1,2.157912598E0,-9.688452759E0,-4.673281860E-1,9.936855603E0
1.387636550E1,2.361938324E0,-1.011282028E1,1.563798065E0,1.050206413E1
1.388632550E1,1.774110718E0,-1.051608170E1,1.921853485E0,1.083646455E1
1.389628450E1,1.222956848E-1,-1.115749786E1,1.492995300E0,1.125760853E1
1.390624450E1,-1.182840271E0,-1.088476501E1,1.286275177E0,1.102414279E1
1.391620350E1,-1.692530365E0,-1.029229706E1,1.035845947E0,1.048184214E1
1.392616350E1,-1.072669373E0,-1.042028091E1,-1.736389160E-1,1.047678502E1
1.393612350E1,5.072950745E-1,-1.060769119E1,-1.217717743E0,1.068940116E1
1.394608250E1,1.152902527E0,-1.110360992E1,-1.322499847E0,1.124136751E1
1.395604250E1,8.514294434E-1,-1.173604477E1,-7.400610352E-1,1.179013864E1
1.396600250E1,1.758842468E-1,-1.151705017E1,-2.139051819E-1,1.152037913E1
1.397596150E1,-2.424957275E-1,-1.084210373E1,4.242178345E-1,1.085310915E1
1.398592150E1,-2.083666992E-1,-1.080662750E1,1.440454559E0,1.090419754E1
1.399588050E1,7.662565613E-1,-1.078686859E1,2.827320557E0,1.117754108E1
1.400584050E1,1.561403046E0,-1.045964905E1,3.852239227E0,1.125530918E1
1.401580050E1,1.194515991E0,-1.031714539E1,3.968846741E0,1.111854765E1
1.402575950E1,3.429368591E-1,-1.007375153E1,3.742667084E0,1.075200597E1
1.403571950E1,1.953437805E-1,-9.471404114E0,3.323388977E0,1.003945065E1
1.404567950E1,9.756710815E-1,-9.200168152E0,2.822680206E0,9.672773730E0
1.405563850E1,1.124910736E0,-9.655521240E0,2.262545013E0,9.980662529E0
1.406559850E1,1.832339630E0,-9.438023529E0,1.470541992E0,9.726060374E0
1.407555750E1,2.501298523E0,-9.227710876E0,7.702981567E-1,9.591689193E0
1.408551750E1,2.727178802E0,-9.470056915E0,4.328997803E-1,9.864425195E0
1.409547750E1,2.189047852E0,-8.631051636E0,-6.376739502E-2,8.904552157E0
1.410543650E1,5.999523926E-1,-8.481362915E0,-7.379653931E-2,8.502876319E0
1.411539650E1,-8.894503784E-1,-9.042994995E0,3.805087280E-1,9.094595502E0
1.412535650E1,-2.312990112E0,-9.779313812E0,7.458988953E-1,1.007676868E1
1.413531550E1,-2.976709900E0,-1.065783691E1,1.089584198E0,1.111923933E1
1.414527550E1,-3.250490570E0,-1.130568970E1,1.472787323E0,1.185552238E1
1.415523221E1,-4.112697601E0,-1.203347626E1,1.937421112E0,1.286360886E1
1.416519121E1,-3.136727142E0,-1.115076187E1,2.585273895E0,1.186853776E1
1.417515121E1,-3.983216858E-1,-9.514215088E0,2.814147949E0,9.929671575E0
1.418511021E1,-6.239025879E-1,-9.430838470E0,2.667453003E0,9.820655488E0
1.419507021E1,4.836442566E-1,-8.642128601E0,2.589914246E0,9.034818998E0
1.420503021E1,-9.240284729E-1,-9.476343842E0,2.528092804E0,9.851201675E0
1.421498921E1,-1.557810516E0,-1.042282562E1,1.995350647E0,1.072583292E1
1.422494921E1,-2.538571014E0,-1.126123215E1,1.536554718E0,1.164562977E1
1.423490921E1,-3.379222870E0,-1.172571625E1,1.065933380E0,1.224939928E1
1.424486821E1,-3.153641968E0,-1.048764084E1,7.749385071E-1,1.097891605E1
1.425482821E1,-3.212769012E0,-9.739496613E0,8.387059021E-1,1.028995173E1
1.426478721E1,-3.530857544E0,-9.833800507E0,1.131946106E0,1.050960938E1
1.427474721E1,-3.197500763E0,-9.767338715E0,1.597478027E0,1.040081020E1
1.428470721E1,-2.479144592E0,-9.367370453E0,2.125579834E0,9.920276042E0
1.429466621E1,-1.901645508E0,-9.230255585E0,2.554737396E0,9.764248919E0
1.430462621E1,-1.588796082E0,-9.618697815E0,2.961890717E0,1.018903417E1
1.431458621E1,-1.100511475E0,-9.914632416E0,3.218906250E0,1.048200453E1
1.432454521E1,-4.547543335E-1,-9.853858795E0,3.357518005E0,1.042008934E1
1.433450521E1,-3.511697388E-1,-1.017194733E1,3.099903717E0,1.063960693E1
1.434446521E1,-2.878514099E-1,-9.982740784E0,2.309696960E0,1.025049618E1
1.435442421E1,-2.354603577E-1,-9.712702332E0,1.345851288E0,9.808330329E0
1.436438421E1,1.338217163E-1,-9.416618042E0,6.500981140E-1,9.439980464E0
1.437434321E1,8.202941895E-1,-8.841214600E0,3.805087280E-1,8.887336218E0
1.438430321E1,1.339863739E0,-8.631949768E0,7.167095947E-1,8.764671373E0
1.439426321E1,2.191442871E0,-8.425529022E0,1.537901917E0,8.840650625E0
1.440422221E1,2.620151367E0,-8.661588135E0,2.915187836E0,9.507187929E0
1.441418221E1,1.406026154E0,-1.009500732E1,3.444636841E0,1.075879200E1
1.442414121E1,2.639012146E-1,-1.090796677E1,3.189267883E0,1.136770920E1
1.443410121E1,-4.019142151E-1,-1.033510803E1,2.646646271E0,1.067617579E1
1.444406121E1,-7.662565613E-1,-9.333540802E0,2.190844116E0,9.617792416E0
1.445402021E1,-4.852908325E-1,-8.456514587E0,1.986668701E0,8.700287276E0
1.446398021E1,9.654922485E-2,-8.134384460E0,1.831890564E0,8.338666281E0
1.447394021E1,2.652484131E-1,-8.561446381E0,2.072140961E0,8.812632354E0
1.448389921E1,2.477348328E-1,-9.106912079E0,2.378254395E0,9.415588889E0
1.449385921E1,1.492396545E-1,-9.592053223E0,2.690056000E0,9.963240376E0
1.450381921E1,2.805166626E-1,-9.827812958E0,2.808310089E0,1.022502825E1
1.451377821E1,2.170486450E-1,-1.018661682E1,2.564018097E0,1.050659132E1
1.452373821E1,4.391867065E-1,-9.803713074E0,2.095193024E0,1.003471518E1
1.453369721E1,6.671626282E-1,-9.469308472E0,1.462309113E0,9.604751785E0
1.454365721E1,4.770579529E-1,-9.550439758E0,9.327104187E-1,9.607727754E0
1.455361721E1,3.664379883E-1,-9.414522400E0,1.354233856E0,9.518479824E0
1.456357621E1,6.586303711E-2,-9.787097626E0,2.129920807E0,1.001639559E1
1.457353621E1,-1.052311707E-1,-1.000684067E1,2.553090820E0,1.032793331E1
1.458349621E1,3.851490784E-1,-9.720635834E0,2.876867523E0,1.014472610E1
1.459345521E1,1.329235840E0,-9.400451660E0,2.441123657E0,9.802777364E0
1.460341521E1,1.600172424E0,-9.556876373E0,1.825603638E0,9.860388757E0
1.461337421E1,1.148411865E0,-9.222771149E0,1.567540283E0,9.425260740E0
1.462333421E1,1.685494995E-1,-9.293573914E0,1.612895966E0,9.434000128E0
1.463329421E1,-5.963598633E-1,-9.548194427E0,1.965263214E0,9.766571630E0
1.464325321E1,-1.007405090E0,-9.552086334E0,2.584824829E0,9.946785297E0
1.465321321E1,-1.372046814E0,-1.025008484E1,2.910098419E0,1.074315710E1
1.466317321E1,-9.771679688E-1,-1.013317795E1,2.849773865E0,1.057153554E1
1.467313221E1,-4.529580688E-1,-9.628427582E0,2.223625946E0,9.892234381E0
1.468309221E1,-1.040336609E-1,-9.209299164E0,1.214424591E0,9.289609312E0
1.469305121E1,-1.179547119E-1,-9.162596283E0,1.039438477E0,9.222121031E0
1.470301121E1,-7.348219299E-1,-1.057356216E1,1.580712891E0,1.071628823E1
1.471297121E1,-1.215771790E0,-1.162841858E1,1.825603638E0,1.183347153E1
1.472293021E1,-9.879455566E-2,-1.042312500E1,2.294279022E0,1.067309755E1
1.473289021E1,2.341131592E-1,-1.033974838E1,2.323618011E0,1.060020784E1
1.474285021E1,7.433541870E-1,-1.038899597E1,2.451003113E0,1.070005743E1
1.475280921E1,1.296304321E0,-1.064077240E1,2.603086853E0,1.103097926E1
1.476276921E1,1.771715698E0,-1.060439804E1,2.596650238E0,1.106050753E1
1.477272821E1,2.090402985E0,-1.035816010E1,2.442021790E0,1.084549379E1
1.478268821E1,1.825903015E0,-1.052012329E1,1.472487946E0,1.077845706E1
1.479264821E1,1.431473236E0,-1.022239243E1,-2.424957275E-2,1.032216114E1
1.480260721E1,6.358776855E-1,-9.996063080E0,-1.197809143E0,1.008763423E1
1.481256721E1,-4.737648010E-1,-9.711953888E0,-1.177900543E0,9.794587847E0
1.482252721E1,-1.187630310E0,-9.909692688E0,-6.227050781E-1,1.000001183E1
1.483248621E1,-1.285826111E0,-9.731413422E0,2.073188782E-1,9.818184001E0
1.484244621E1,-1.032253418E0,-9.793234863E0,1.365610199E0,9.941724570E0
1.485240521E1,-1.835183716E-1,-9.812095642E0,1.913770294E0,9.998670743E0
1.486236521E1,5.426216125E-1,-9.279802551E0,1.789678345E0,9.466367951E0
1.487232521E1,6.851252747E-1,-9.243128815E0,1.164278870E0,9.341326041E0
1.488228421E1,4.710704041E-1,-1.024140289E1,4.351451111E-1,1.026146149E1
1.489224421E1,4.772076416E-1,-1.092084000E1,-6.346801758E-2,1.093144554E1
1.490220421E1,6.885681152E-1,-1.153800659E1,3.594026184E-1,1.156412091E1
1.491216321E1,5.173242188E-1,-1.132470016E1,1.321002960E0,1.141321633E1
1.492212321E1,1.055754547E0,-1.046922913E1,1.816921692E0,1.067804198E1
1.493208221E1,1.371897125E0,-9.898915100E0,1.498234406E0,1.010521292E1
1.494204221E1,1.424886932E0,-9.378746796E0,6.448590088E-1,9.508261532E0
1.495200221E1,1.510359192E0,-9.029073944E0,3.083587646E-2,9.154578747E0
1.496196121E1,1.499431915E0,-8.966803436E0,-3.094065857E-1,9.096570363E0
1.497192121E1,1.111887817E0,-9.034013672E0,-5.839356995E-1,9.120892415E0
1.498188121E1,6.451583862E-1,-9.140592041E0,-6.607260132E-1,9.187122023E0
1.499184021E1,-1.266366577E-1,-9.469757538E0,-7.328759766E-1,9.498918458E0
1.500180021E1,-1.005608826E0,-9.967023468E0,-7.885601807E-1,1.004861349E1
1.501175921E1,-1.874701538E0,-1.093131821E1,-5.376818848E-1,1.110393288E1
1.502171921E1,-2.231709137E0,-1.170835236E1,3.712280273E-2,1.191920378E1
1.503167921E1,-2.270478516E0,-1.147768204E1,5.983058167E-1,1.171538422E1
1.504163821E1,-1.280137939E0,-9.925410004E0,1.315464478E0,1.009370911E1
1.505159821E1,2.138153687E0,-6.918013916E0,2.695145416E0,7.726216833E0
1.506155821E1,1.756896515E0,-7.983647919E0,2.781366119E0,8.634889515E0
1.507151721E1,-4.432283020E-1,-9.355994110E0,1.641037445E0,9.509157745E0
1.508147721E1,-2.040556641E0,-1.005459137E1,7.762857056E-1,1.028889200E1
1.509143621E1,-2.298021240E0,-1.022778122E1,7.563771057E-1,1.051001982E1
1.510139621E1,-1.758842468E0,-1.044857208E1,4.915777588E-1,1.060697101E1
1.511135621E1,-1.942061462E0,-1.132275421E1,-7.089257812E-1,1.150994967E1
1.512131521E1,-1.651815033E0,-9.861043854E0,-1.902393951E0,1.017780829E1
1.513127521E1,9.684860229E-1,-7.857460327E0,-2.058818665E0,8.180243411E0
1.514123521E1,2.610122223E0,-7.131320343E0,-1.159039764E0,7.681916495E0
1.515119658E1,2.088606720E0,-7.211852875E0,-6.101312256E-1,7.532951615E0
1.516115658E1,1.777104492E0,-7.121740265E0,-3.418890381E-1,7.348072733E0
1.517111558E1,1.317859497E0,-7.902217255E0,-7.676037598E-1,8.048043658E0
1.518107558E1,8.273295593E-1,-8.572223969E0,-9.460327148E-1,8.663860333E0
1.519103558E1,4.062551880E-1,-8.788224792E0,-4.049079895E-1,8.806922775E0
1.520099458E1,1.791773987E-1,-8.792416077E0,1.264869690E-1,8.795151162E0
1.521095458E1,-2.517764282E-1,-9.178014221E0,2.859054565E-1,9.185917393E0
1.522091458E1,-8.532257080E-1,-9.824370117E0,2.484832764E-1,9.864481043E0
1.523087358E1,2.097138977E-1,-9.391919403E0,6.640191650E-1,9.417698840E0
1.524083358E1,9.695338440E-1,-9.414821777E0,1.192420349E0,9.539430343E0
1.525079258E1,1.755549316E0,-9.088051300E0,1.410067749E0,9.362847905E0
1.526075258E1,2.079475708E0,-8.222551117E0,1.210981750E0,8.567440860E0
1.527071258E1,2.018702087E0,-7.523953857E0,5.164260864E-1,7.807159257E0
1.528067158E1,1.055754547E0,-7.696844330E0,-1.366658020E-1,7.770116334E0
1.529063158E1,3.441343689E-1,-7.427853699E0,-2.010319519E-1,7.438538356E0
1.530059158E1,6.506968689E-1,-6.688690796E0,3.203338623E-2,6.720343527E0
1.531055058E1,1.052012329E0,-7.457791443E0,4.144880676E-1,7.543022173E0
1.532051058E1,1.796713715E0,-8.333320770E0,1.300944672E0,8.623506959E0
1.533046958E1,2.873724060E0,-8.543184357E0,2.357297974E0,9.316713083E0
1.534042958E1,3.100203094E0,-9.357640686E0,2.370320892E0,1.013879281E1
1.535038958E1,2.899470520E0,-1.035786072E1,1.200204163E0,1.082278605E1
1.536034858E1,2.648891602E0,-1.099164276E1,2.775228882E-1,1.130972397E1
1.537030858E1,2.055076447E0,-1.127186005E1,4.882846069E-1,1.146806828E1
1.538026858E1,1.444047089E0,-1.134311188E1,8.382568359E-1,1.146534490E1
1.539022758E1,1.258433075E0,-1.121467896E1,6.797364807E-1,1.130551722E1
1.540018758E1,1.884580994E-1,-1.150118317E1,-1.028361511E-1,1.150318677E1
1.541014758E1,-4.501139832E-1,-1.140598114E1,-7.140151978E-1,1.143716862E1
1.542010658E1,-1.177601166E0,-1.181193695E1,-1.645378418E0,1.198398386E1
1.543006658E1,-1.675166473E0,-1.246877106E1,-2.898722076E0,1.291042308E1
1.544002558E1,-8.978329468E-1,-1.226115280E1,-2.637664948E0,1.257375236E1
1.544998558E1,-8.641529846E-1,-1.339878708E1,-2.131866760E0,1.359481929E1
1.545994558E1,-1.177601166E0,-1.240245895E1,-1.914967804E0,1.260455609E1
1.546990458E1,-3.643423462E-1,-1.067834427E1,-7.571255493E-1,1.071135009E1
1.547986458E1,-1.977088623E0,-1.103475311E1,2.541714478E-1,1.121335181E1
1.548982458E1,-3.651506653E0,-1.218121902E1,9.069639587E-1,1.274904629E1
1.549978358E1,-2.580633545E0,-1.098730179E1,1.941612396E0,1.145208840E1
1.550974358E1,-1.577270050E0,-1.021924896E1,2.759361877E0,1.070209831E1
1.551970358E1,-1.473236389E0,-9.842781830E0,2.427501984E0,1.024419570E1
1.552966258E1,-8.409512329E-1,-8.866212616E0,2.014361115E0,9.130967957E0
1.553962258E1,2.035766602E-2,-8.275091858E0,2.200274506E0,8.562637887E0
1.554958158E1,-2.112107849E-1,-8.598269806E0,1.985620880E0,8.827091476E0
1.555954158E1,-3.727249146E-2,-8.611741791E0,2.128723297E0,8.871017348E0
1.556950158E1,1.562750244E-1,-9.570048981E0,2.155966644E0,9.811139156E0
1.557946058E1,-3.622467041E-2,-1.003662872E1,2.166744232E0,1.026791161E1
1.558942058E1,4.803511047E-1,-1.000788849E1,2.364932098E0,1.029473035E1
1.559938058E1,1.008303223E0,-9.735604706E0,2.170336761E0,1.002541949E1
1.560933958E1,1.822160797E0,-9.364825745E0,2.112706604E0,9.771579217E0
1.561929958E1,2.409838715E0,-9.229357452E0,2.069745941E0,9.760748428E0
1.562925958E1,2.498903503E0,-9.081614685E0,2.041005707E0,9.637735642E0
1.563921858E1,2.259551239E0,-9.455836487E0,1.873653717E0,9.900959232E0
1.564917858E1,1.409169617E0,-9.476044464E0,1.815125427E0,9.750685002E0
1.565913758E1,4.529580688E-1,-9.516011353E0,2.058519287E0,9.746647871E0
1.566909758E1,-1.754351807E-1,-9.461973724E0,1.980082397E0,9.668528873E0
1.567905758E1,-4.915777588E-1,-9.356443176E0,1.820663910E0,9.544605528E0
1.568901658E1,-4.614903259E-1,-9.354347534E0,1.634600830E0,9.507297775E0
1.569897658E1,-5.037025452E-1,-9.833201752E0,1.630559235E0,9.980195207E0
1.570893658E1,-5.294490051E-1,-1.031624725E1,1.679956512E0,1.046554000E1
1.571889558E1,-1.094823303E0,-1.063643143E1,1.501677246E0,1.079756205E1
1.572885558E1,-1.562899933E0,-1.041354492E1,1.433718567E0,1.062732906E1
1.573881458E1,-1.334325256E0,-9.781409454E0,1.442101135E0,9.976775556E0
1.574877458E1,-1.060544586E0,-9.085356903E0,1.459015961E0,9.262677391E0
1.575873458E1,-1.218466187E0,-8.743168488E0,2.060315552E0,9.064907899E0
1.576869358E1,-8.255332947E-1,-8.701854401E0,2.165995789E0,9.005293609E0
1.577865358E1,-3.833528137E-1,-8.796607361E0,2.547103271E0,9.165969426E0
1.578861358E1,-1.178050232E-1,-9.116192780E0,2.603685608E0,9.481457038E0
1.579857258E1,1.287322998E-2,-8.788374481E0,2.576442261E0,9.158261105E0
1.580853258E1,8.439450073E-1,-9.235345001E0,1.576521606E0,9.406873064E0
1.581849258E1,1.600471802E0,-9.422455902E0,8.063731384E-1,9.591372313E0
1.582845158E1,2.502196655E0,-8.896300049E0,7.539820862E-1,9.272196700E0
1.583841158E1,3.034190369E0,-8.157436523E0,1.198856964E0,8.785632581E0
1.584837158E1,1.963017883E0,-8.874295807E0,1.576371918E0,9.224506149E0
1.585833058E1,9.783654785E-1,-9.390123138E0,2.034868469E0,9.657758604E0
1.586829058E1,-6.078858948E-1,-1.019065842E1,2.170785828E0,1.043701851E1
1.587824958E1,-2.059417419E0,-1.073537567E1,2.638862457E0,1.124513610E1
1.588820958E1,-2.142794037E0,-1.033435959E1,3.169958038E0,1.101994503E1
1.589816958E1,-1.664987640E0,-1.011147308E1,2.504591675E0,1.054926780E1
1.590812858E1,-8.087681580E-1,-9.868228912E0,1.213227081E0,9.975368051E0
1.591808858E1,-1.594184875E-1,-9.204658813E0,1.428030396E-1,9.207146726E0
1.592804858E1,-3.797602844E-1,-8.571026459E0,1.914518738E-1,8.581571316E0
1.593800758E1,-1.419198761E0,-8.861272888E0,1.276695099E0,9.064559156E0
1.594796758E1,-1.363664246E0,-9.178014221E0,2.305655365E0,9.560939906E0
1.595792758E1,-1.644929352E0,-9.254355469E0,3.031945038E0,9.876314010E0
1.596788658E1,-1.185235291E0,-9.277706909E0,3.330574036E0,9.928411333E0
1.597784658E1,-4.469705200E-1,-9.765991516E0,2.650089111E0,1.012903476E1
1.598780558E1,6.923103333E-1,-1.062176193E1,1.712139587E0,1.078111971E1
1.599776558E1,1.425335999E0,-1.126871658E1,1.273551636E0,1.142967584E1
1.600772558E1,1.779349823E0,-1.109328140E1,1.364562378E0,1.131764147E1
1.601768458E1,9.116043091E-1,-1.053823563E1,1.538350983E0,1.068887067E1
1.602764458E1,-2.050735474E-2,-1.005683670E1,1.735041962E0,1.020542775E1
1.603760458E1,-4.315525818E-1,-9.826465759E0,2.101180573E0,1.005786393E1
1.604756358E1,-9.388476562E-1,-9.986932068E0,2.460583191E0,1.032834530E1
1.605752358E1,-1.457818451E0,-1.025218048E1,2.701881409E0,1.070199058E1
1.606748258E1,-1.466500397E0,-1.037761963E1,2.741997986E0,1.083347431E1
1.607744258E1,-9.370513916E-1,-1.054721695E1,2.411934357E0,1.085998518E1
1.608740258E1,-2.284249878E-1,-1.081336349E1,1.759740601E0,1.095799685E1
1.609736158E1,2.085163879E-1,-1.073552536E1,1.347348175E0,1.082175267E1
1.610732158E1,7.982899475E-1,-9.813143463E0,1.620380402E0,9.978010028E0
1.611728158E1,3.385958862E-1,-9.130263519E0,1.691033478E0,9.291714230E0
1.612724058E1,-1.619631958E-1,-8.872649231E0,1.444645844E0,8.990947562E0
1.613720058E1,-6.017486572E-2,-9.369316406E0,1.207987976E0,9.447060172E0
1.614716058E1,-1.636097717E-1,-9.707762604E0,1.199904785E0,9.783005388E0
1.615711696E1,1.556762695E-1,-1.051697983E1,1.075513458E0,1.057297635E1
1.616707696E1,1.011895752E0,-1.120060822E1,1.412313080E0,1.133455714E1
1.617703596E1,1.542542267E0,-1.020383102E1,1.418749695E0,1.041683517E1
1.618699596E1,2.314187622E-1,-1.047761169E1,1.080602875E0,1.053572988E1
1.619695596E1,1.052162018E0,-1.090227859E1,1.672771454E0,1.107993176E1
1.620691496E1,1.043031006E0,-1.053928345E1,2.497855682E0,1.088134607E1
1.621687496E1,1.516496429E0,-1.032837204E1,2.982996826E0,1.085694711E1
1.622683496E1,2.165097656E0,-9.902507629E0,3.104394379E0,1.060115888E1
1.623679396E1,2.316882019E0,-9.877210236E0,2.614313507E0,1.047672942E1
1.624675396E1,2.520758057E0,-9.870174866E0,1.532662811E0,1.030163231E1
1.625671296E1,2.854563904E0,-9.874515839E0,2.327659607E-1,1.028147743E1
1.626667296E1,3.113525391E0,-9.840087433E0,-4.963677979E-1,1.033284772E1
1.627663296E1,3.358266449E0,-9.435029755E0,-9.819580078E-2,1.001535733E1
1.628659196E1,3.173101501E0,-9.590107269E0,7.574249268E-1,1.012977902E1
1.629655196E1,2.637515259E0,-1.016625916E1,1.434616699E0,1.060035080E1
1.630651196E1,2.018552399E0,-1.079405365E1,1.157842255E0,1.104204450E1
1.631647096E1,1.836381226E0,-1.140283768E1,1.441502380E-1,1.155066156E1
1.632643096E1,1.474882965E0,-1.170056854E1,-8.765771484E-1,1.182569116E1
1.633638996E1,1.304537201E0,-1.036923706E1,-6.821315002E-1,1.047321335E1
1.634634996E1,8.105644226E-1,-9.144933014E0,-2.372566223E-1,9.183850239E0
1.635630996E1,-5.752537537E-1,-8.298592987E0,1.056802368E-1,8.319178491E0
1.636626896E1,-2.177372131E0,-8.151598663E0,6.863227844E-1,8.465255408E0
1.637622896E1,-3.223696289E0,-8.715925140E0,1.308129730E0,9.384602933E0
1.638618896E1,-3.597019958E0,-9.651928711E0,1.352437592E0,1.038880974E1
1.639614796E1,-2.367327118E0,-1.004650818E1,1.363215179E0,1.041128810E1
1.640610796E1,-7.381150818E-1,-1.006087830E1,1.371897125E0,1.018077540E1
1.641606696E1,-8.864566040E-1,-1.046593597E1,9.797126770E-1,1.054900270E1
1.642602696E1,-1.571881256E0,-1.050485504E1,2.335144043E-1,1.062437382E1
1.643598696E1,-1.958826599E0,-1.017928207E1,-3.835025024E-1,1.037313161E1
1.644594596E1,-2.076781311E0,-1.005683670E1,-4.189787292E-1,1.027757404E1
1.645590596E1,-2.148033142E0,-9.953252106E0,-4.930746460E-1,1.019433159E1
1.646586596E1,-5.288502502E-1,-8.333171082E0,-1.951940918E-1,8.352216687E0
1.647582496E1,-2.104623413E-1,-8.577463074E0,-7.349716187E-2,8.580359492E0
1.648578496E1,-6.843768311E-1,-9.214388580E0,-4.727169800E-1,9.251853322E0
1.649574396E1,-8.135581970E-1,-9.254954224E0,-6.697073364E-1,9.314749730E0
1.650570396E1,-7.225474548E-1,-8.880732422E0,-7.268884277E-1,8.939678404E0
1.651566396E1,-5.620811462E-1,-8.514444122E0,-1.053509216E0,8.597765733E0
1.652562296E1,-5.089416504E-2,-8.088430023E0,-1.604214020E0,8.246138070E0
1.653558296E1,2.321672058E-1,-8.308322754E0,-2.113155670E0,8.575987143E0
1.654554296E1,7.140151978E-1,-8.457113342E0,-1.917362823E0,8.701084069E0
