"Time (s)","Acceleration x (m/s^2)","Acceleration y (m/s^2)","Acceleration z (m/s^2)","Absolute acceleration (m/s^2)"
1.567833242E-3,-2.513273621E-1,1.498533783E0,1.009186386E1,1.020561047E1
1.160483330E-2,-2.085163879E-1,1.560205536E0,9.873318329E0,9.998006562E0
2.164183324E-2,-9.131011963E-3,1.582209778E0,9.804760895E0,9.931606484E0
3.167983331E-2,2.338137817E-1,1.529219971E0,9.828711090E0,9.949710764E0
4.171683325E-2,3.134481812E-1,1.390009460E0,9.826016693E0,9.928795502E0
5.175383331E-2,3.902384949E-1,1.284778290E0,9.855355682E0,9.946405228E0
6.179183326E-2,3.460803223E-1,1.269809418E0,9.777367859E0,9.865551672E0
7.182883332E-2,2.971321106E-1,1.276994476E0,9.649683380E0,9.738346457E0
8.186583326E-2,3.303630066E-1,1.329684906E0,9.500144348E0,9.598434471E0
9.190283332E-2,2.254312134E-1,1.397344208E0,9.404942322E0,9.510853282E0
1.019408333E-1,1.077758789E-2,1.394799500E0,9.468110962E0,9.570303391E0
1.119778333E-1,-9.759704590E-2,1.331032104E0,9.399403839E0,9.493680223E0
1.220148333E-1,2.305206299E-2,1.283580780E0,9.422904968E0,9.509955261E0
1.320528333E-1,1.980381775E-1,1.185534668E0,9.503287811E0,9.578997379E0
1.420898333E-1,3.080593872E-1,1.074465637E0,9.494755554E0,9.560322172E0
1.521268333E-1,4.231700134E-1,1.115630035E0,9.507628784E0,9.582207905E0
1.621638333E-1,5.884263611E-1,1.232536926E0,9.424701233E0,9.523150014E0
1.722018333E-1,6.700067139E-1,1.333277435E0,9.256900177E0,9.376392622E0
1.822388333E-1,5.803431702E-1,1.393452301E0,9.104517059E0,9.228799402E0
1.922758333E-1,3.688330078E-1,1.388362885E0,9.187743988E0,9.299367122E0
2.023138333E-1,1.971400452E-1,1.353934479E0,9.402547302E0,9.501573477E0
2.123508332E-1,2.619552612E-2,1.265767822E0,9.709409180E0,9.791602576E0
2.223878333E-1,-8.202941895E-2,1.197509766E0,1.002974304E1,1.010131199E1
2.324248332E-1,-1.342707825E-1,1.153501282E0,1.020278320E1,1.026866004E1
2.424628333E-1,-1.038839722E-1,1.176553345E0,1.025277924E1,1.032058873E1
2.524998332E-1,8.831634521E-3,1.364562378E0,1.023990601E1,1.033042998E1
2.625368333E-1,9.235794067E-2,1.510808258E0,1.011551468E1,1.022813320E1
2.725748332E-1,1.311273193E-1,1.598825226E0,9.937534790E0,1.006618270E1
2.826118333E-1,1.353186035E-1,1.660047913E0,9.761201477E0,9.902278751E0
2.926492083E-1,7.589218140E-2,1.661694489E0,9.627230072E0,9.769879582E0
3.026862083E-1,-4.191284180E-3,1.626068573E0,9.617350616E0,9.753847930E0
3.127242082E-1,7.933502197E-3,1.540895691E0,9.706714783E0,9.828262021E0
3.227612083E-1,9.490264893E-2,1.438209229E0,9.832004242E0,9.937090103E0
3.327982082E-1,2.378553772E-1,1.306932220E0,9.898316345E0,9.987057298E0
3.428362083E-1,4.349954224E-1,1.233884125E0,9.901609497E0,9.987670483E0
3.528732082E-1,5.932164001E-1,1.228645020E0,9.758956146E0,9.853867228E0
3.629102083E-1,6.610253906E-1,1.309177551E0,9.577383728E0,9.689023661E0
3.729472082E-1,6.080355835E-1,1.369352417E0,9.350006561E0,9.469290153E0
3.829852083E-1,5.034031677E-1,1.407822418E0,9.190288696E0,9.311110838E0
3.930222082E-1,4.251159668E-1,1.478026428E0,9.181457062E0,9.309373743E0
4.030592083E-1,2.314187622E-1,1.484612732E0,9.321565704E0,9.441886294E0
4.130972082E-1,-1.751358032E-2,1.418150940E0,9.530381470E0,9.635332364E0
4.231342083E-1,-1.983375549E-1,1.333427124E0,9.767638092E0,9.860229185E0
4.331712082E-1,-1.986369324E-1,1.290765839E0,9.873468018E0,9.959463026E0
4.432082083E-1,-8.816665649E-2,1.345551910E0,9.885443115E0,9.976986964E0
4.532462083E-1,2.170486450E-2,1.440753937E0,9.912387085E0,1.001656931E1
4.632832083E-1,8.173004150E-2,1.479373627E0,9.887838135E0,9.998228298E0
4.733202083E-1,8.187973022E-2,1.530567169E0,9.859546967E0,9.977976074E0
4.833582083E-1,9.819580078E-2,1.541644135E0,9.782606964E0,9.903822902E0
4.933952083E-1,2.709365845E-2,1.487157440E0,9.686656494E0,9.800188026E0
5.034322083E-1,-1.586700439E-2,1.468895416E0,9.718689880E0,9.829081264E0
5.134692083E-1,-1.040336609E-1,1.356030121E0,9.938881989E0,1.003150118E1
5.235072083E-1,-1.380130005E-1,1.225351868E0,1.012120285E1,1.019604246E1
5.335442083E-1,-6.152206421E-2,1.207538910E0,1.009919861E1,1.017131986E1
5.435812083E-1,1.691482544E-2,1.301992493E0,1.001357666E1,1.009788038E1
5.536182083E-1,9.999206543E-2,1.360969849E0,9.881551208E0,9.975334161E0
5.636562083E-1,2.366578674E-1,1.455273743E0,9.810299377E0,9.920473904E0
5.736932083E-1,3.171903992E-1,1.513502655E0,9.713750153E0,9.836068425E0
5.837302083E-1,3.100053406E-1,1.542093201E0,9.633966064E0,9.761529434E0
5.937682083E-1,2.127076721E-1,1.573976898E0,9.571545868E0,9.702429496E0
6.038052082E-1,1.826202393E-2,1.518143005E0,9.537267151E0,9.657357630E0
6.138422083E-1,-1.487905884E-1,1.443448334E0,9.647737427E0,9.756255388E0
6.238792082E-1,-2.137554932E-1,1.384770355E0,9.689949646E0,9.790730539E0
6.339172083E-1,-2.637515259E-1,1.378034363E0,9.649683380E0,9.751150338E0
6.439542082E-1,-1.761836243E-1,1.329086151E0,9.612261200E0,9.705311744E0
6.539912083E-1,2.938389587E-1,1.572629700E0,9.627978516E0,9.759993637E0
6.640292082E-1,4.912783813E-1,1.742227020E0,9.648785248E0,9.817115982E0
6.740662083E-1,4.775070190E-1,1.601220245E0,9.696985016E0,9.839890123E0
6.841032082E-1,9.924362183E-2,1.389111328E0,9.893226929E0,9.990766669E0
6.941402083E-1,4.519102478E-1,1.398242340E0,1.006177643E1,1.016851264E1
7.041782083E-1,7.340734863E-1,1.111588440E0,1.019499939E1,1.028165868E1
7.142152083E-1,4.388873291E-1,1.721120911E0,1.004321503E1,1.019907091E1
7.242522083E-1,-1.335223389E-1,1.794618073E0,9.777068481E0,9.941305263E0
7.342902083E-1,-2.724334717E-1,1.693578186E0,9.557325439E0,9.710041021E0
7.443272083E-1,2.067201233E-1,1.694925385E0,9.589059448E0,9.739895604E0
7.543642083E-1,1.026864624E-1,1.595083008E0,9.616452484E0,9.748384107E0
7.644012083E-1,2.255809021E-1,1.828298035E0,9.568402405E0,9.744120536E0
7.744392083E-1,4.444258118E-1,1.858684845E0,9.648934937E0,9.836369710E0
7.844762083E-1,3.866459656E-1,1.798210602E0,9.654024353E0,9.827677380E0
7.945132083E-1,6.819818115E-1,1.795366516E0,9.768685913E0,9.955685039E0
8.045512083E-1,7.866142273E-1,1.638043671E0,9.984836426E0,1.014883774E1
8.145882083E-1,6.831793213E-1,1.501677246E0,9.991123352E0,1.012641666E1
8.246252083E-1,3.122506714E-1,1.473835144E0,9.893526306E0,1.000757480E1
8.346622083E-1,1.739382935E-1,1.537153473E0,9.719138947E0,9.841481453E0
8.447002083E-1,2.877017212E-1,1.674867096E0,9.653425598E0,9.801866039E0
8.547372083E-1,4.209246826E-1,1.812281342E0,9.625882874E0,9.804038063E0
8.647742083E-1,4.087998962E-1,1.867217102E0,9.728868713E0,9.914862758E0
8.748122082E-1,3.680845642E-1,1.924248505E0,9.686955872E0,9.883083153E0
8.848492083E-1,1.386117554E-1,1.915716248E0,9.503287811E0,9.695445383E0
8.948862082E-1,-5.119354248E-2,1.932032318E0,9.503437500E0,9.697973705E0
9.049232083E-1,-2.088157654E-1,1.868713989E0,9.536818085E0,9.720421554E0
9.149612082E-1,-2.839595032E-1,1.689386902E0,9.596843262E0,9.748541516E0
9.249982083E-1,-1.669029236E-1,1.784888306E0,9.719588013E0,9.883525382E0
9.350352082E-1,-1.288819885E-1,1.855840759E0,9.726473694E0,9.902779711E0
9.450722083E-1,-2.077679443E-1,1.723964996E0,9.692943420E0,9.847252154E0
9.551102082E-1,-1.908531189E-1,1.618284760E0,9.630672913E0,9.767555028E0
9.651472083E-1,-1.314266968E-1,1.695224762E0,9.530680847E0,9.681164051E0
9.751842082E-1,-1.414558411E-1,1.818268890E0,9.453441467E0,9.627755039E0
9.852222083E-1,-2.562670898E-1,1.744771729E0,9.374405823E0,9.538835659E0
9.952592083E-1,-4.153862000E-1,1.644180908E0,9.383087769E0,9.535104227E0
1.005296208E0,-6.451583862E-1,1.558259583E0,9.592352600E0,9.739488214E0
1.015333208E0,-7.253915405E-1,1.326242065E0,9.864636383E0,9.979787667E0
1.025371208E0,-4.721182251E-1,1.330882416E0,9.991273041E0,1.009057385E1
1.035408208E0,-3.460803223E-1,1.445543976E0,1.006791367E1,1.017704547E1
1.045445208E0,-2.833607483E-1,1.471140747E0,1.008976822E1,1.020039073E1
1.055483208E0,-4.399351501E-1,1.459315338E0,9.969867554E0,1.008570291E1
1.065520208E0,-1.000369720E0,1.327589264E0,9.903705139E0,1.004224120E1
1.075557208E0,-3.974235535E-1,2.014959869E0,9.838440857E0,1.005051876E1
1.085594208E0,-3.779640198E-1,1.939067688E0,9.613608398E0,9.814494727E0
1.095632208E0,-7.349716187E-1,1.522034912E0,9.497300262E0,9.646527138E0
1.105669208E0,-2.944377136E-1,1.798809357E0,9.472751312E0,9.646524042E0
1.115706208E0,4.700225830E-2,1.651815033E0,9.657916260E0,9.798267632E0
1.125744208E0,-3.867956543E-1,1.276695099E0,9.669142914E0,9.760731834E0
1.135781208E0,-4.625381470E-1,1.302441559E0,9.605076141E0,9.704008617E0
1.145818208E0,-2.504292297E-1,1.307680664E0,9.620045013E0,9.711745959E0
1.155855208E0,-9.669891357E-2,1.351539459E0,9.657167816E0,9.751763934E0
1.165893208E0,-1.333726501E-1,1.277742920E0,9.712552643E0,9.797147242E0
1.175930208E0,-3.095562744E-1,1.008003845E0,9.764644318E0,9.821414129E0
1.185967208E0,-3.302133179E-1,8.032296753E-1,9.887089691E0,9.925157999E0
1.196005208E0,5.559439087E-1,1.336271210E0,9.275461578E0,9.387698433E0
1.206042208E0,2.659968567E-1,1.407672729E0,9.069639587E0,9.182083592E0
1.216079208E0,-8.367599487E-2,1.617536316E0,8.832233276E0,8.979519478E0
1.226116208E0,-3.124003601E-1,1.872306519E0,9.063951416E0,9.260579947E0
1.236154208E0,-6.387217712E-1,2.121987305E0,9.206006012E0,9.468967331E0
1.246191208E0,-9.201365662E-1,2.329605560E0,9.195976868E0,9.530986513E0
1.256228208E0,-1.082548828E0,2.438578949E0,9.233399048E0,9.611151712E0
1.266265208E0,-1.228495331E0,2.473157043E0,9.173673248E0,9.580291614E0
1.276303208E0,-1.290167084E0,2.479443970E0,9.272018738E0,9.684136770E0
1.286340125E0,-1.437909851E0,2.456391907E0,9.637857971E0,1.004936576E1
1.296377125E0,-1.085991669E0,2.501148834E0,9.815688171E0,1.018738719E1
1.306415125E0,-7.740403748E-1,2.237397308E0,9.998158722E0,1.027464175E1
1.316452125E0,-3.607498169E-1,2.655926971E0,9.762848053E0,1.012409456E1
1.326489125E0,2.978805542E-2,3.014581146E0,1.025652145E1,1.069040781E1
1.336526125E0,-3.686833191E-1,2.608026581E0,9.505682831E0,9.863860102E0
1.346564125E0,-7.186555481E-1,1.979184265E0,8.832832031E0,9.080339082E0
1.356601125E0,-5.584886169E-1,2.102378082E0,8.998537445E0,9.257730785E0
1.366638125E0,-3.478765869E-1,2.070943451E0,9.227860565E0,9.463785474E0
1.376676125E0,-4.755610657E-1,1.909579010E0,9.952054596E0,1.014475436E1
1.386713125E0,-6.680607605E-1,1.886976013E0,9.720785522E0,9.924749610E0
1.396750125E0,-5.709127808E-1,2.047442322E0,9.902058563E0,1.012762190E1
1.406787125E0,-6.123765564E-1,1.939965820E0,1.008303223E1,1.028620490E1
1.416825125E0,-5.189707947E-1,1.738185425E0,9.993069305E0,1.015637994E1
1.426862125E0,-5.575904846E-1,1.825453949E0,9.882299652E0,1.006494092E1
1.436899125E0,-5.891748047E-1,2.025887146E0,9.719588013E0,9.945940720E0
1.446936125E0,-5.451663208E-1,2.074985046E0,9.556576996E0,9.794433783E0
1.456974125E0,-5.155279541E-1,1.935026093E0,9.607471161E0,9.813949111E0
1.467011125E0,-5.649252319E-1,1.699715424E0,9.688452759E0,9.852628578E0
1.477048125E0,-5.869294739E-1,1.536854095E0,9.698182526E0,9.836724608E0
1.487086125E0,-5.983058167E-1,1.485959930E0,9.782157898E0,9.912449743E0
1.497123125E0,-5.836363220E-1,1.421593781E0,9.932595062E0,1.005077136E1
1.507160125E0,-5.128335571E-1,1.370549927E0,9.985435181E0,1.009209201E1
1.517197125E0,-5.626799011E-1,1.328188019E0,1.010967682E1,1.021206431E1
1.527235125E0,-6.030958557E-1,1.280137939E0,1.013108231E1,1.022943334E1
1.537272125E0,-6.406677246E-1,1.193318481E0,1.000624191E1,1.009749183E1
1.547309125E0,-6.051914978E-1,1.051413574E0,9.957293701E0,1.003092344E1
1.557347125E0,-5.278024292E-1,1.063238983E0,9.966125336E0,1.003656847E1
1.567384125E0,-4.802014160E-1,1.163530426E0,9.893526306E0,9.973277256E0
1.577421125E0,-5.322930908E-1,1.343456268E0,9.743089142E0,9.849669878E0
1.587458125E0,-5.469625854E-1,1.578317871E0,9.441166992E0,9.587798994E0
1.597496125E0,-6.027964783E-1,1.663790131E0,9.192534027E0,9.361316309E0
1.607533125E0,-7.132667542E-1,1.616189117E0,9.153165894E0,9.322084670E0
1.617570125E0,-9.035211182E-1,1.443598022E0,9.233848114E0,9.389583412E0
1.627608125E0,-1.049168243E0,1.355431366E0,9.273665314E0,9.430737858E0
1.637645125E0,-1.147513733E0,1.321152649E0,9.280850372E0,9.444385407E0
1.647682125E0,-1.161584473E0,1.338366852E0,9.294621735E0,9.462055670E0
1.657719125E0,-1.142274628E0,1.371148682E0,9.275311890E0,9.445435442E0
1.667757125E0,-1.081201630E0,1.403780823E0,9.217831421E0,9.386586902E0
1.677794125E0,-9.966275024E-1,1.455423431E0,9.125024414E0,9.293954718E0
1.687831125E0,-8.951385498E-1,1.493594055E0,8.736582184E0,8.908420987E0
1.697868125E0,-8.545729065E-1,1.470541992E0,8.431965637E0,8.601792436E0
1.707906125E0,-7.891589355E-1,1.444795532E0,8.161178741E0,8.325565711E0
1.717943125E0,-7.255412292E-1,1.319655762E0,8.026009827E0,8.166072198E0
1.727980125E0,-6.852749634E-1,1.193019104E0,7.966583405E0,8.084512818E0
1.738018125E0,-6.424639893E-1,1.109941864E0,8.024363251E0,8.126200619E0
1.748055125E0,-8.354127502E-1,9.392967224E-1,8.121062164E0,8.217776066E0
1.758092125E0,-1.027912445E0,8.677455139E-1,8.028704224E0,8.140619005E0
1.768129125E0,-1.177750854E0,7.818241882E-1,7.886949005E0,8.012634445E0
1.778167125E0,-1.201102295E0,5.736071777E-1,7.941435699E0,8.052209193E0
1.788204125E0,-1.077459412E0,3.122506714E-1,8.147706757E0,8.224569573E0
1.798241125E0,-1.041384430E0,1.173559570E-1,8.292605438E0,8.358562012E0
1.808278125E0,-1.219064941E0,-1.523831177E-1,8.419990540E0,8.509146880E0
1.818316125E0,-1.299148407E0,-4.104464722E-1,8.397237854E0,8.507047459E0
1.828353125E0,-1.284029846E0,-5.216651917E-1,8.492888947E0,8.605232703E0
1.838390125E0,-1.625619507E0,-5.899232483E-1,8.693920898E0,8.864248914E0
1.848428125E0,-1.969753876E0,-6.572831726E-1,8.812923431E0,9.054257060E0
1.858465125E0,-1.810784454E0,-6.026467896E-1,9.111402740E0,9.309123664E0
1.868502125E0,-1.814826050E0,-7.243437195E-1,9.540859680E0,9.738905013E0
1.878539125E0,-1.964963837E0,-1.116528168E0,9.843230896E0,1.009935208E1
1.888577125E0,-2.344275055E0,-1.583856354E0,9.942175140E0,1.033687927E1
1.898614125E0,-2.605930939E0,-1.890867920E0,9.813891907E0,1.032853968E1
1.908651125E0,-2.478695526E0,-1.772613831E0,9.510622559E0,9.986893048E0
1.918689125E0,-2.137704620E0,-1.372645569E0,9.129964142E0,9.476823420E0
1.928726125E0,-1.902693329E0,-8.012837219E-1,8.607400818E0,8.851533559E0
1.938763125E0,-1.774859161E0,-2.929408264E-1,8.366701355E0,8.557898745E0
1.948800125E0,-1.678908691E0,-6.825805664E-2,8.574918365E0,8.737998543E0
1.958838125E0,-1.776356049E0,-3.402424622E-1,9.166188812E0,9.342923690E0
1.968875125E0,-2.107467499E0,-1.125060425E0,9.501491547E0,9.797220107E0
1.978912125E0,-2.587968292E0,-1.604513397E0,9.660910034E0,1.012942377E1
1.988949125E0,-3.073109436E0,-1.494641876E0,9.565408630E0,1.015750945E1
1.998987125E0,-3.576961670E0,-9.345066833E-1,9.018146667E0,9.746534094E0
2.009024125E0,-4.136049042E0,-5.298980713E-2,8.315657501E0,9.287619139E0
2.019061125E0,-4.390519867E0,7.825726318E-1,7.965086517E0,9.128619165E0
2.029099125E0,-4.300407257E0,1.009650421E0,7.853718109E0,9.010759385E0
2.039136125E0,-4.147275696E0,7.331753540E-1,7.888894958E0,8.942712422E0
2.049173125E0,-3.786076813E0,2.360591125E-1,8.159382477E0,8.998090016E0
2.059210125E0,-3.259771271E0,-2.585124207E-1,8.431815948E0,9.043697120E0
2.069248125E0,-2.709066467E0,-4.489164734E-1,8.675209808E0,9.099441320E0
2.079285125E0,-2.215093689E0,-3.291654968E-1,8.683292999E0,8.967416980E0
2.089322125E0,-2.301613770E0,3.353027344E-2,8.468339996E0,8.775610094E0
2.099359125E0,-2.652633820E0,6.674620056E-1,8.163723450E0,8.609782359E0
2.109397125E0,-3.243006134E0,1.520987091E0,8.436905365E0,9.165798528E0
2.119434125E0,-3.794609070E0,1.942959595E0,9.264384613E0,1.019818475E1
2.129471125E0,-4.288132782E0,1.427281952E0,9.709858246E0,1.071011502E1
2.139509125E0,-4.680466919E0,4.111949158E-1,9.679621124E0,1.075968944E1
2.149546125E0,-4.630321198E0,-4.379891968E-1,9.606872406E0,1.067350488E1
2.159583125E0,-4.478985901E0,-8.593629456E-1,9.364226990E0,1.041578449E1
2.169620125E0,-4.239184570E0,-7.732919312E-1,8.622519379E0,9.639320861E0
2.179658125E0,-3.815415802E0,-2.406994629E-1,7.962691498E0,8.832881176E0
2.189695125E0,-3.553460541E0,4.845423889E-1,7.818241882E0,8.601556212E0
2.199732125E0,-3.429518280E0,1.010997620E0,8.102500763E0,8.856310204E0
2.209770125E0,-3.475622406E0,1.185235291E0,8.692573700E0,9.436396099E0
2.219807125E0,-3.836970978E0,9.431886292E-1,9.452393646E0,1.024498398E1
2.229844125E0,-4.222419434E0,3.412902832E-1,1.011776001E1,1.096879084E1
2.239881125E0,-4.574187927E0,-3.543132019E-1,1.038899597E1,1.135693490E1
2.249919125E0,-5.014871521E0,-7.637118530E-1,1.023870850E1,1.142643181E1
2.259956125E0,-5.048102417E0,-6.857240295E-1,9.656119995E0,1.091761003E1
2.269993125E0,-4.833149414E0,-2.552192688E-1,9.184750214E0,1.038191247E1
2.280030125E0,-4.702770538E0,1.829196167E-1,8.943601685E0,1.010631097E1
2.290068750E0,-4.580624542E0,5.646258545E-1,8.708590393E0,9.855986515E0
2.300105750E0,-4.593348083E0,7.238946533E-1,8.615633698E0,9.790404184E0
2.310142750E0,-4.948260040E0,5.821394348E-1,9.186546478E0,1.045068419E1
2.320180750E0,-5.416785736E0,-2.993774414E-2,9.947264557E0,1.132654123E1
2.330217750E0,-5.742209015E0,-8.101153564E-1,1.031639694E1,1.183458056E1
2.340254750E0,-5.805527344E0,-1.327888641E0,1.038345749E1,1.197011384E1
2.350291750E0,-5.748945007E0,-1.302142181E0,1.056428146E1,1.209751982E1
2.360329750E0,-5.749693451E0,-8.572673035E-1,1.080273560E1,1.226755796E1
2.370366750E0,-5.972879333E0,-5.393284607E-1,1.080812439E1,1.236049010E1
2.380403750E0,-6.277645569E0,-4.846920776E-1,1.050440598E1,1.224688961E1
2.390440750E0,-6.485862579E0,-4.927752686E-1,1.012928604E1,1.203792659E1
2.400478750E0,-6.555467834E0,-5.492079163E-1,9.814191284E0,1.181499634E1
2.410515750E0,-6.549031219E0,-7.316784668E-1,9.599088593E0,1.164335283E1
2.420552750E0,-6.445895691E0,-1.001866608E0,9.311985626E0,1.136953756E1
2.430590750E0,-6.133345642E0,-1.207538910E0,9.036857758E0,1.098821537E1
2.440627750E0,-5.631289673E0,-1.156345367E0,8.850195923E0,1.055341300E1
2.450664750E0,-5.151237946E0,-9.071136475E-1,8.878337402E0,1.030451273E1
2.460701750E0,-4.850064240E0,-6.505471802E-1,8.973539429E0,1.022109312E1
2.470739750E0,-4.832400970E0,-5.649252319E-1,8.988208923E0,1.022052539E1
2.480776750E0,-4.998405762E0,-6.601272583E-1,8.912915497E0,1.024011186E1
2.490813750E0,-5.214705963E0,-8.366102600E-1,8.825048218E0,1.028467554E1
2.500850750E0,-5.398972778E0,-9.687854004E-1,8.720864868E0,1.030247234E1
2.510888750E0,-5.380860443E0,-1.061891785E0,8.750353546E0,1.032714677E1
2.520925750E0,-5.206473083E0,-1.146914978E0,8.885372772E0,1.036207630E1
2.530962750E0,-4.928950195E0,-1.186283112E0,8.967252502E0,1.030113756E1
2.541000750E0,-4.638853455E0,-1.138981476E0,9.106313324E0,1.028305317E1
2.551037750E0,-4.420008545E0,-1.044527893E0,9.291627960E0,1.034223691E1
2.561074750E0,-4.442312164E0,-9.906399536E-1,9.403894501E0,1.044742727E1
2.571111750E0,-4.564907227E0,-9.698332214E-1,9.394464111E0,1.048975264E1
2.581149750E0,-4.597539368E0,-9.891430664E-1,9.509275360E0,1.060858568E1
2.591186750E0,-4.731959839E0,-1.052461395E0,9.537566528E0,1.069879873E1
2.601223750E0,-4.701573029E0,-1.038540344E0,9.378148041E0,1.054196451E1
2.611260750E0,-4.552932129E0,-9.054670715E-1,9.218280487E0,1.032113156E1
2.621298750E0,-4.325704651E0,-7.619155884E-1,8.997040558E0,1.001194161E1
2.631335750E0,-4.114942932E0,-6.595285034E-1,8.921298065E0,9.846689411E0
2.641372750E0,-4.026327209E0,-6.024971008E-1,9.051227875E0,9.924668236E0
2.651410750E0,-3.996090088E0,-6.728507996E-1,9.289532318E0,1.013493339E1
2.661447750E0,-4.088448029E0,-7.849676514E-1,9.588460693E0,1.045323682E1
2.671484750E0,-4.168681183E0,-8.611592102E-1,9.834099884E0,1.071583028E1
2.681521750E0,-4.198618927E0,-9.074130249E-1,1.010623398E1,1.098124604E1
2.691559750E0,-4.137096863E0,-9.340576172E-1,1.025682083E1,1.109911743E1
2.701596750E0,-3.996988220E0,-9.045689392E-1,1.030921188E1,1.109387261E1
2.711633750E0,-3.681294708E0,-8.207432556E-1,1.024634262E1,1.091847459E1
2.721670750E0,-3.327280884E0,-6.821315002E-1,1.010309052E1,1.065873067E1
2.731708750E0,-2.975063324E0,-5.385800171E-1,9.916129303E0,1.036680715E1
2.741745750E0,-2.707120514E0,-3.939807129E-1,9.761800232E0,1.013787286E1
2.751782750E0,-2.512824554E0,-2.706372070E-1,9.757010193E0,1.007902672E1
2.761820750E0,-2.370171204E0,-2.171983337E-1,9.841584320E0,1.012529844E1
2.771857750E0,-2.407743073E0,-1.678010559E-1,9.984686737E0,1.027226134E1
2.781894750E0,-2.673739929E0,6.346801758E-2,1.002525238E1,1.037586617E1
2.791931750E0,-2.768043823E0,4.396357727E-1,9.751471710E0,1.014625777E1
2.801969750E0,-2.754122772E0,4.489164734E-1,9.450148315E0,9.853528375E0
2.812006750E0,-2.797382812E0,1.694476318E-1,9.146878967E0,9.566580264E0
2.822043750E0,-2.626438293E0,-3.188369751E-2,8.825497284E0,9.208072382E0
2.832080750E0,-2.199226685E0,-3.143463135E-2,8.651858368E0,8.927050989E0
2.842118750E0,-1.704505463E0,1.495390320E-1,8.560548248E0,8.729873258E0
2.852155750E0,-1.229692841E0,4.586462402E-1,8.672066345E0,8.770817268E0
2.862192750E0,-8.893006897E-1,7.092251587E-1,8.812624054E0,8.885730063E0
2.872230750E0,-8.795709229E-1,7.572752380E-1,8.979077911E0,9.053781030E0
2.882267750E0,-1.226998444E0,5.703140259E-1,9.083860016E0,9.184078400E0
2.892304750E0,-1.676363983E0,3.180885315E-1,9.119785309E0,9.278031073E0
2.902341750E0,-2.103126526E0,1.442999268E-1,9.176966400E0,9.415979820E0
2.912379750E0,-2.417173462E0,-4.790039062E-3,9.194479980E0,9.506903418E0
2.922416750E0,-2.556683350E0,-1.404080200E-1,9.112749939E0,9.465651357E0
2.932453750E0,-2.501148834E0,-1.716929626E-1,8.990753632E0,9.333749237E0
2.942490750E0,-2.306254120E0,-9.220825195E-2,8.840765533E0,9.137091750E0
2.952528750E0,-2.170636139E0,-2.574645996E-2,8.744815063E0,9.010222784E0
2.962565750E0,-2.156715088E0,-4.026626587E-2,8.738677826E0,9.000973919E0
2.972602750E0,-2.316732330E0,-1.525328064E-1,8.858578491E0,9.157779634E0
2.982640750E0,-2.717898102E0,-2.944377136E-1,8.969797211E0,9.377149122E0
2.992677750E0,-3.068319397E0,-3.472778320E-1,9.017697601E0,9.531739392E0
3.002714750E0,-3.229085083E0,-2.249821472E-1,9.125323792E0,9.682414045E0
3.012751750E0,-3.382815399E0,-1.083746338E-1,9.310488739E0,9.906582945E0
3.022789750E0,-3.409609680E0,-7.020401001E-2,9.350006561E0,9.952536836E0
3.032826750E0,-3.287912750E0,-6.691085815E-2,9.261390839E0,9.827929974E0
3.042863750E0,-3.072510681E0,-9.999206543E-2,9.132508850E0,9.636028134E0
3.052900750E0,-2.756517792E0,-8.831634521E-2,9.016200714E0,9.428577063E0
3.062938750E0,-2.447260895E0,-5.373825073E-2,8.989107056E0,9.316438125E0
3.072975750E0,-2.240241394E0,-3.128494263E-2,9.050629120E0,9.323816156E0
3.083012750E0,-2.263143768E0,-5.358856201E-2,9.176367645E0,9.451476848E0
3.093049750E0,-2.280357971E0,-9.250762939E-2,9.274114380E0,9.550800368E0
3.103087750E0,-2.204016724E0,-1.282832336E-1,9.290879517E0,9.549585776E0
3.113124750E0,-2.052980804E0,-1.549278259E-1,9.299860840E0,9.525027268E0
3.123161750E0,-1.843117218E0,-1.811233521E-1,9.280700684E0,9.463682789E0
3.133199750E0,-1.660796356E0,-2.682421875E-1,9.198970642E0,9.351537803E0
3.143236750E0,-1.482517090E0,-3.373983765E-1,9.211843872E0,9.336474822E0
3.153273750E0,-1.277742920E0,-4.221221924E-1,9.334588623E0,9.431084714E0
3.163310750E0,-1.202898560E0,-5.204676819E-1,9.474996643E0,9.565218917E0
3.173348750E0,-1.248553619E0,-5.625302124E-1,9.608219604E0,9.705318663E0
3.183385750E0,-1.228794708E0,-4.685256958E-1,9.658065948E0,9.747188858E0
3.193422750E0,-1.277892609E0,-2.701881409E-1,9.641899567E0,9.729966002E0
3.203459750E0,-1.322649536E0,-9.729766846E-3,9.568701782E0,9.659686861E0
3.213497750E0,-1.449735260E0,1.752854919E-1,9.541907501E0,9.653002439E0
3.223534750E0,-1.672322388E0,1.056802368E-1,9.511670380E0,9.658141845E0
3.233571750E0,-1.759441223E0,-1.383123779E-1,9.372908936E0,9.537619496E0
3.243609750E0,-1.560055847E0,-2.814147949E-1,9.205257568E0,9.340756684E0
3.253646750E0,-1.212029572E0,-2.462379456E-1,9.157656555E0,9.240796632E0
3.263683750E0,-8.771759033E-1,-1.657054138E-1,9.181906128E0,9.225198968E0
3.273720750E0,-6.855743408E-1,-7.604187012E-2,9.210197296E0,9.235990947E0
3.283758750E0,-8.637039185E-1,-2.050735474E-2,9.392518158E0,9.432168487E0
3.293795708E0,-1.178349609E0,4.939727783E-2,9.728269958E0,9.799499185E0
3.303832708E0,-1.435664520E0,1.103205872E-1,1.013452515E1,1.023630320E1
3.313869708E0,-1.626218262E0,1.197509766E-3,1.044857208E1,1.057436740E1
3.323907708E0,-1.650168457E0,-2.183958435E-1,1.040112076E1,1.053347358E1
3.333944708E0,-1.422491913E0,-3.571572876E-1,1.015787659E1,1.026321106E1
3.343981708E0,-1.138382721E0,-3.623963928E-1,9.994416504E0,1.006556544E1
3.354019708E0,-8.764274597E-1,-3.266207886E-1,9.917476501E0,9.961483142E0
3.364056708E0,-8.202941895E-1,-3.219804382E-1,9.918075256E0,9.957146717E0
3.374093708E0,-1.070723419E0,-3.644920349E-1,9.889484711E0,9.953954537E0
3.384130708E0,-1.150657196E0,-4.810995483E-1,9.860594788E0,9.939154809E0
3.394168708E0,-1.199755096E0,-7.286846924E-1,9.739346924E0,9.839983342E0
3.404205708E0,-1.129102020E0,-7.640112305E-1,9.713301086E0,9.808506641E0
3.414242708E0,-1.046773224E0,-8.005352783E-1,9.897867279E0,9.985207438E0
3.424279708E0,-7.322772217E-1,-7.646099854E-1,9.624835052E0,9.682887387E0
3.434317708E0,-6.933581543E-1,-6.583309937E-1,9.612111511E0,9.659546207E0
3.444354708E0,-7.921527100E-1,-9.270222473E-1,9.639354858E0,9.716174054E0
3.454391708E0,-1.038091278E0,-1.300645294E0,9.785451050E0,9.925943982E0
3.464428708E0,-1.420396271E0,-1.609453125E0,9.721084900E0,9.955267779E0
3.474466708E0,-1.884730682E0,-1.903890839E0,9.596394196E0,9.963322319E0
3.484503708E0,-2.259102173E0,-2.255210266E0,9.489666138E0,1.001215658E1
3.494540708E0,-2.519710236E0,-2.420915680E0,9.133556671E0,9.779142594E0
3.504578708E0,-2.509232025E0,-2.390528870E0,8.767717438E0,9.427817494E0
3.514615708E0,-2.152224426E0,-2.336191864E0,8.376431122E0,8.958485405E0
3.524652708E0,-1.583407288E0,-2.277813263E0,8.024512939E0,8.490489963E0
3.534689708E0,-1.168919220E0,-2.262994080E0,7.717052307E0,8.126525128E0
3.544727708E0,-2.130818939E0,-1.973047028E0,7.435637512E0,7.982606663E0
3.554764708E0,-2.935096436E0,-2.315085754E0,7.045099640E0,7.975452468E0
3.564801708E0,-2.933300171E0,-3.499722290E0,7.505991211E0,8.785909746E0
3.574838708E0,-3.151995392E0,-4.158352661E0,8.246052246E0,9.758296442E0
3.584876708E0,-3.946543121E0,-3.956871643E0,8.637637939E0,1.028789701E1
3.594913708E0,-3.932173004E0,-3.786376190E0,8.588989105E0,1.017690341E1
3.604950708E0,-3.447929993E0,-3.707639923E0,8.265062714E0,9.692578434E0
3.614987708E0,-3.285966797E0,-3.679797821E0,8.044870605E0,9.437077559E0
3.625025708E0,-3.153043213E0,-3.684288483E0,8.023764496E0,9.375311185E0
3.635062708E0,-2.891986084E0,-3.831282806E0,8.117319946E0,9.430439786E0
3.645099708E0,-2.509681091E0,-3.998185730E0,8.225694580E0,9.483988593E0
3.655137708E0,-2.245181122E0,-4.199367371E0,8.304281158E0,9.572701298E0
3.665174708E0,-1.988464966E0,-4.442761230E0,8.478668518E0,9.776499379E0
3.675211708E0,-1.539548492E0,-4.489464111E0,8.340505829E0,9.596329249E0
3.685248708E0,-1.435514832E0,-4.312532043E0,8.292306061E0,9.456266455E0
3.695286708E0,-1.230890350E0,-4.116439819E0,7.978408813E0,9.061742384E0
3.705323708E0,-1.003064117E0,-3.845952301E0,7.653434601E0,8.623951989E0
3.715360708E0,-9.650431824E-1,-3.839216309E0,7.191195831E0,8.208787224E0
3.725397708E0,-1.124761047E0,-4.174668732E0,6.800807648E0,8.058779752E0
3.735435708E0,-1.428928528E0,-4.649481354E0,6.947951660E0,8.481364623E0
3.745472708E0,-1.843865662E0,-5.179080048E0,7.325316925E0,9.158765133E0
3.755509708E0,-2.069296875E0,-5.544320526E0,7.792046356E0,9.784552421E0
3.765546708E0,-1.817969513E0,-5.496719513E0,8.302035828E0,1.012139997E1
3.775584708E0,-1.504221954E0,-5.326224060E0,8.349337463E0,1.001712446E1
3.785621708E0,-1.294058990E0,-5.331014099E0,7.778424683E0,9.518308176E0
3.795658708E0,-1.181792450E0,-5.367538147E0,7.171436920E0,9.035297818E0
3.805696708E0,-1.376687164E0,-5.385500793E0,6.641389160E0,8.660654497E0
3.815733708E0,-1.986069946E0,-5.547613678E0,6.502328339E0,8.775007987E0
3.825770708E0,-2.836601257E0,-6.267616425E0,6.532715149E0,9.487132842E0
3.835807708E0,-3.161725159E0,-6.964567108E0,6.809489594E0,1.024064693E1
3.845845708E0,-3.138972473E0,-7.369774475E0,7.196884003E0,1.076855902E1
3.855882708E0,-2.903661804E0,-7.817044373E0,7.342980194E0,1.111111123E1
3.865919708E0,-2.631078644E0,-8.033643951E0,7.348818054E0,1.120121140E1
3.875956708E0,-2.331401825E0,-7.935747528E0,7.144942017E0,1.092985452E1
3.885994708E0,-1.930984497E0,-7.688910828E0,6.588848419E0,1.030829638E1
3.896031708E0,-1.162632294E0,-7.739206238E0,6.109694824E0,9.928514385E0
3.906068708E0,6.167175293E-2,-7.941435699E0,5.657335510E0,9.750674307E0
3.916105708E0,-8.693920898E-1,-9.757608948E0,8.037086792E0,1.267128798E1
3.926143708E0,-1.418001251E0,-1.169293442E1,1.075363770E1,1.594917448E1
3.936180708E0,4.565505981E-1,-1.013063324E1,1.209065735E1,1.578043610E1
3.946217708E0,1.604962463E0,-9.677675171E0,1.129476242E1,1.496011228E1
3.956255708E0,1.576970673E0,-9.505982208E0,1.020547760E1,1.403575104E1
3.966292708E0,1.365759888E0,-8.876241760E0,9.294771423E0,1.292461774E1
3.976329708E0,7.972421265E-1,-8.378377075E0,8.131839752E0,1.170297463E1
3.986366708E0,-5.463638306E-2,-7.544910278E0,7.105573883E0,1.036425764E1
3.996404708E0,-5.556445312E-1,-6.506819000E0,5.725593567E0,8.685036329E0
4.006441708E0,-9.571096802E-1,-6.394103394E0,5.051545258E0,8.204799000E0
4.016478708E0,-2.227368164E0,-7.084168396E0,4.561763763E0,8.715291127E0
4.026515708E0,-3.393293610E0,-9.440717926E0,5.574407959E0,1.147674259E1
4.036553708E0,-3.261866913E0,-1.158216476E1,7.209308167E0,1.402713230E1
4.046590708E0,-7.247927856E-1,-1.060828995E1,7.773185577E0,1.317131558E1
4.056627708E0,-7.723937988E-2,-1.011222153E1,7.588769073E0,1.264327514E1
4.066664708E0,-1.787283325E-1,-8.749156036E0,6.218219147E0,1.073526546E1
4.076702708E0,-7.702981567E-1,-7.406298523E0,3.745960236E0,8.335396520E0
4.086739708E0,-2.060614929E0,-6.381230164E0,2.426304474E0,7.131141962E0
4.096776708E0,-3.572920074E0,-5.982309723E0,1.671124878E0,7.165643435E0
4.106813708E0,-5.307962036E0,-6.012995911E0,1.973047028E0,8.259751532E0
4.116851708E0,-4.456831970E0,-5.947581940E0,2.654130707E0,7.891862388E0
4.126888708E0,-2.255060577E0,-7.414830780E0,3.312761078E0,8.428487389E0
4.136925708E0,-1.029109955E0,-8.757089539E0,4.853058014E0,1.006468363E1
4.146963708E0,-4.381388855E-1,-9.841584320E0,6.070775757E0,1.157164923E1
4.157000708E0,2.483335876E-1,-1.126362717E1,6.847211151E0,1.318390182E1
4.167037708E0,-1.428030396E-1,-1.216146011E1,7.236401825E0,1.415227954E1
4.177074708E0,-6.041436768E-1,-1.192614944E1,6.883884888E0,1.378353733E1
4.187112708E0,-5.044509888E-2,-1.124686203E1,5.737418976E0,1.262586341E1
4.197149708E0,-1.243015137E0,-9.122180328E0,3.356919250E0,9.799396279E0
4.207186708E0,-1.629810791E0,-8.311615906E0,1.988464966E0,8.700185923E0
4.217223708E0,-3.678300934E0,-8.936716003E0,2.811154175E0,1.006465988E1
4.227261708E0,-7.246131592E0,-7.067552948E0,1.825304260E0,1.028535188E1
4.237298708E0,-5.815855865E0,-6.358028412E0,1.406624908E0,8.730824610E0
4.247335708E0,-2.219584351E0,-6.051765289E0,2.111658783E0,6.783031816E0
4.257373708E0,-1.260379028E0,-5.765111389E0,1.646276550E0,6.126605186E0
4.267410708E0,-1.403032379E0,-6.327491913E0,2.273172913E0,6.868258066E0
4.277447708E0,-2.442021790E0,-7.407645721E0,2.947819977E0,8.338244909E0
4.287484708E0,-3.354224854E0,-9.781559143E0,4.334087219E0,1.121222706E1
4.297522208E0,-2.795885925E0,-1.206835373E1,6.408922577E0,1.394763164E1
4.307559208E0,-1.737586670E0,-1.251173172E1,6.649322662E0,1.427501769E1
4.317596208E0,-2.227517853E0,-1.161135406E1,6.059998169E0,1.328566735E1
4.327633208E0,-2.890339508E0,-1.141002274E1,3.769012299E0,1.235913164E1
4.337671208E0,-1.170565796E0,-9.736353149E0,1.373843079E0,9.902234179E0
4.347708208E0,-4.496649170E-1,-7.605384521E0,-4.029620361E-1,7.629315216E0
4.357745208E0,-1.061143341E0,-6.117328949E0,-2.560575256E0,6.715972327E0
4.367782208E0,-2.039209442E0,-5.450016632E0,-1.721420288E0,6.068306539E0
4.377820208E0,-3.537892914E0,-5.847440186E0,-2.354603577E-1,6.838470924E0
4.387857208E0,-4.665947113E0,-6.389313354E0,8.568182373E-1,7.957922159E0
4.397894208E0,-4.699327698E0,-6.592291260E0,1.516646118E0,8.236637682E0
4.407931208E0,-3.458857269E0,-7.199578400E0,1.931134186E0,8.217475402E0
4.417969208E0,-2.153571625E0,-8.585097198E0,2.700534210E0,9.253899160E0
4.428006208E0,-1.169218597E0,-9.943222961E0,3.383713531E0,1.056807798E1
4.438043208E0,-1.669029236E-1,-1.048823959E1,3.461102600E0,1.104582535E1
4.448081208E0,-3.796105957E-1,-1.026819717E1,1.613644409E0,1.040114540E1
4.458118208E0,-2.322121124E0,-9.982142029E0,3.484753418E-1,1.025460097E1
4.468155208E0,-1.320104828E0,-1.010832962E1,2.888992310E-1,1.019825805E1
4.478192208E0,-8.012837219E-1,-1.014679962E1,2.844085693E-3,1.017838918E1
4.488230208E0,-8.027806091E-1,-9.701176300E0,-3.930825806E-1,9.742268331E0
4.498267208E0,-1.983375549E-1,-9.467063141E0,3.861968994E-1,9.477012733E0
4.508304208E0,-1.526824951E-1,-9.915680237E0,1.279688873E0,9.999081464E0
4.518341208E0,-8.795709229E-1,-1.072429871E1,1.856738892E0,1.091932723E1
4.528379208E0,2.168989563E-1,-1.115285751E1,1.057999878E0,1.120502743E1
4.538416208E0,2.033221893E0,-1.029109955E1,2.676434326E-1,1.049344339E1
4.548453208E0,3.212619324E0,-1.101349731E1,1.817221069E-1,1.147392997E1
4.558490208E0,3.810775452E0,-1.083461929E1,1.257984009E0,1.155393909E1
4.568528208E0,4.342769165E0,-9.316326599E0,2.926863556E0,1.068738114E1
4.578565208E0,1.548080750E0,-6.857539673E0,3.045566711E0,7.661454233E0
4.588602208E0,2.824626160E-1,-7.566914520E0,6.676116943E-2,7.572478956E0
4.598640208E0,4.202061768E0,-6.019432526E0,2.127675476E0,7.643159946E0
4.608677208E0,8.795709229E-1,-7.559280396E0,1.886526947E0,7.840621725E0
4.618714208E0,-2.624941406E0,-9.140592041E0,-1.077758789E-1,9.510644347E0
4.628751208E0,-3.655398560E0,-9.028774567E0,-2.038610687E0,9.951715548E0
4.638789208E0,-1.680255890E0,-9.245224457E0,-4.263733521E0,1.031876246E1
4.648826208E0,1.372645569E-1,-8.344397736E0,-3.795656891E0,9.168141925E0
4.658863208E0,2.026934967E0,-8.156388702E0,-7.167095947E-1,8.434975677E0
4.668900208E0,2.004631348E0,-9.108259277E0,9.413923645E-1,9.373641421E0
4.678938208E0,1.603016510E0,-9.873018951E0,1.592987366E0,1.012836482E1
4.688975208E0,9.946815491E-1,-1.068029022E1,8.173004150E-1,1.075760060E1
4.699012208E0,1.497485962E0,-1.181762512E1,1.308279419E-1,1.191284364E1
4.709049208E0,1.662891998E0,-1.198333054E1,1.221459961E-1,1.209877433E1
4.719087208E0,1.358874207E0,-1.162931671E1,-3.272195435E-1,1.171301067E1
4.729124208E0,1.302740936E0,-1.140538239E1,-9.163943481E-1,1.151606095E1
4.739161208E0,1.108145599E0,-1.113743958E1,-8.339158630E-1,1.122345591E1
4.749199208E0,9.607022095E-1,-1.088147186E1,-4.468208313E-1,1.093293316E1
4.759236208E0,5.212161255E-1,-1.081575851E1,2.585124207E-1,1.083139544E1
4.769273208E0,4.117936707E-1,-1.019185593E1,8.945397949E-1,1.023932140E1
4.779310208E0,4.055067444E-1,-9.765692139E0,1.043480072E0,9.829650519E0
4.789348208E0,5.409750366E-1,-9.213939514E0,1.115031281E0,9.296915086E0
4.799385208E0,5.406756592E-1,-8.565338287E0,1.139580231E0,8.657712934E0
4.809422208E0,8.942404175E-1,-8.509354706E0,1.129251709E0,8.630410932E0
4.819459208E0,2.170187073E0,-7.242838440E0,2.275268555E-2,7.561014369E0
4.829497208E0,2.910547485E0,-6.970854034E0,-4.894821167E-2,7.554236464E0
4.839534208E0,2.707120514E0,-6.847061462E0,5.194198608E-2,7.362978346E0
4.849571208E0,1.744472351E0,-7.128176880E0,3.869453430E-1,7.348728877E0
4.859608208E0,7.936495972E-1,-7.484585724E0,8.443940735E-1,7.573764222E0
4.869646208E0,4.772076416E-1,-8.364456024E0,1.016985168E0,8.439556300E0
4.879683208E0,4.311035156E-1,-9.766290894E0,1.533560944E0,9.895357357E0
4.889720208E0,1.281185760E0,-1.149205215E1,1.701062622E0,1.168769925E1
4.899758208E0,2.432591400E0,-1.493070145E1,1.559457092E0,1.520773662E1
4.909795208E0,1.507814484E0,-1.875060791E1,4.442761230E-1,1.881638070E1
4.919832208E0,1.515897675E0,-1.975202545E1,2.133064270E-1,1.981125828E1
4.929869208E0,1.313069458E0,-1.778197220E1,5.715115356E-1,1.783954349E1
4.939907208E0,7.337741089E-1,-1.346285385E1,1.064286804E0,1.352477596E1
4.949944208E0,6.870712280E-1,-1.039154068E1,-9.145980835E-1,1.045431367E1
4.959981208E0,9.481283569E-1,-9.001381531E0,-1.757345581E0,9.220199582E0
4.970018208E0,1.077459412E0,-7.985444183E0,-6.774911499E-1,8.086237187E0
4.980056208E0,1.025517426E0,-7.814499664E0,3.468287659E-1,7.889130572E0
4.990093208E0,9.270222473E-1,-8.822802887E0,1.236877899E0,8.957180805E0
5.000130208E0,1.278491364E0,-9.694440308E0,1.561702423E0,9.902304151E0
5.010167208E0,1.612895966E0,-9.837991791E0,1.204694824E0,1.004185269E1
5.020205208E0,1.725611572E0,-9.641600189E0,7.946974182E-1,9.826990053E0
5.030242208E0,1.450483704E0,-9.680968323E0,2.914439392E-1,9.793364601E0
5.040279208E0,1.016985168E0,-9.732311554E0,-3.502716064E-2,9.785365293E0
5.050317208E0,7.348219299E-1,-9.756860504E0,-1.582209778E-1,9.785771510E0
5.060354208E0,5.369334412E-1,-9.712253265E0,-6.256988525E-2,9.727285130E0
5.070391208E0,6.387217712E-1,-9.582772522E0,2.311193848E-1,9.606815855E0
5.080428208E0,9.717791748E-1,-9.702373810E0,7.207511902E-1,9.777519859E0
5.090466208E0,1.327589264E0,-9.887838135E0,9.541159058E-1,1.002208428E1
5.100503208E0,1.597478027E0,-1.001597168E1,8.431965637E-1,1.017755399E1
5.110540208E0,1.758094025E0,-9.887089691E0,6.499484253E-1,1.006319383E1
5.120577208E0,1.491797791E0,-9.788893890E0,4.089495850E-1,9.910355393E0
5.130615208E0,1.274150391E0,-9.836644592E0,2.448907471E-1,9.921844966E0
5.140652208E0,1.142424316E0,-1.003004242E1,7.918533325E-2,1.009520453E1
5.150689208E0,1.048270111E0,-1.008572662E1,5.508544922E-2,1.014020642E1
5.160727208E0,1.036444702E0,-1.000654129E1,3.138972473E-1,1.006496983E1
5.170764208E0,1.168470154E0,-9.555229797E0,6.081852722E-1,9.645601500E0
5.180801208E0,1.231638794E0,-8.011939087E0,6.929090881E-1,8.135614608E0
5.190838208E0,1.135538635E0,-7.660919037E0,1.090033264E0,7.820952691E0
5.200876208E0,1.137185211E0,-8.552315369E0,2.597248993E0,9.010049428E0
5.210913208E0,1.387464752E0,-1.007360184E1,2.252366180E0,1.041516518E1
5.220950208E0,1.274449768E0,-1.002944366E1,5.894741821E-1,1.012726233E1
5.230987208E0,8.433462524E-1,-1.057595718E1,-2.924917603E-1,1.061355994E1
5.241025208E0,6.071374512E-1,-1.091934311E1,-7.469467163E-1,1.096168779E1
5.251062208E0,8.719367981E-1,-9.677226105E0,-1.620530090E0,9.850639402E0
5.261099208E0,8.484356689E-1,-9.134903870E0,-1.133143616E0,9.243934565E0
5.271136208E0,6.295907593E-1,-8.888965302E0,-7.470964050E-1,8.942496390E0
5.281174208E0,5.763015747E-1,-9.150770874E0,-4.453239441E-1,9.179708302E0
5.291212000E0,2.532733154E-1,-8.963659973E0,5.239105225E-1,8.982529138E0
5.301249000E0,9.683363342E-1,-7.319928131E0,2.487826538E-1,7.387889814E0
5.311287000E0,1.132844238E0,-8.156239014E0,7.322772217E-1,8.267030957E0
5.321324000E0,1.792821808E0,-8.768016815E0,8.981323242E-3,8.949436271E0
5.331361000E0,2.383044434E0,-9.287436676E0,-1.701960754E-1,9.589804351E0
5.341398000E0,2.654579773E0,-8.683742065E0,8.427474976E-2,9.080818920E0
5.351436000E0,2.843187561E0,-7.408843231E0,3.424877930E-1,7.943045475E0
5.361473000E0,2.267484741E0,-6.295757904E0,3.683839417E-1,6.701773002E0
5.371510000E0,1.620530090E0,-7.309150543E0,-6.596781921E-1,7.515648658E0
5.381547000E0,1.878743134E0,-8.123307495E0,-6.200106812E-1,8.360754372E0
5.391585000E0,2.197280731E0,-8.778794403E0,-1.328786774E0,9.146635888E0
5.401622000E0,1.362915802E0,-1.082144669E1,-9.033714294E-1,1.094428288E1
5.411659000E0,2.838846588E0,-1.129551086E1,1.194515991E-1,1.164739818E1
5.421697000E0,2.506687317E0,-1.125314896E1,2.086062012E0,1.171616394E1
5.431734000E0,2.468367004E0,-9.936636658E0,4.415817261E0,1.115029263E1
5.441771000E0,2.490071869E0,-8.855285339E0,5.011728058E0,1.047539758E1
5.451808000E0,2.738405457E0,-7.789950714E0,3.684587860E0,9.042034299E0
5.461846000E0,2.389031982E0,-7.802674255E0,1.724114685E0,8.340369944E0
5.471883000E0,2.027982788E0,-8.278534698E0,-1.444496155E-1,8.524536154E0
5.481920000E0,1.920057220E0,-9.488169250E0,-4.198768616E-1,9.689596072E0
5.491957000E0,1.704655151E0,-1.071621552E1,2.929408264E-1,1.085490389E1
5.501995000E0,1.544039154E0,-1.066008224E1,-1.963916016E-1,1.077311376E1
5.512032000E0,2.684367828E0,-1.146196472E1,-2.098486176E0,1.195767997E1
5.522069000E0,2.363884277E0,-1.363963623E1,-2.296524353E0,1.403216482E1
5.532107000E0,1.512604523E0,-1.309132645E1,-3.246448975E0,1.357240699E1
5.542144000E0,2.682272186E0,-1.146271317E1,-2.825973358E0,1.210679572E1
5.552181000E0,1.785337372E0,-1.266695892E1,-2.418370972E0,1.301874787E1
5.562218000E0,1.416055298E0,-1.219738541E1,-2.087858276E0,1.245554397E1
5.572256000E0,1.408271484E0,-1.218720657E1,-1.734443207E0,1.239029967E1
5.582293000E0,2.953508148E0,-1.204320602E1,-2.004182281E0,1.256100188E1
5.592330000E0,3.352278900E0,-1.018811371E1,-1.232237549E0,1.079601057E1
5.602367000E0,1.514101410E0,-1.141122025E1,1.314416656E0,1.158603218E1
5.612405000E0,1.516646118E0,-1.093985046E1,1.729054413E0,1.117900589E1
5.622442000E0,1.611548767E0,-1.071352112E1,9.357041931E-1,1.087438120E1
5.632479000E0,2.016756134E0,-7.121590576E0,8.581654358E-1,7.451228459E0
5.642516000E0,1.315763855E-1,-3.667523346E0,9.250762939E-2,3.671048556E0
5.652554000E0,-1.180744629E0,-2.185904388E0,-8.425978088E-1,2.623415129E0
5.662591000E0,2.203717346E0,-5.604495392E0,2.957998810E0,6.709433337E0
5.672628000E0,5.605842590E-1,-5.410049744E0,-8.837622070E-1,5.510347410E0
5.682666000E0,-1.415755920E0,-4.639901276E0,5.385800171E-1,4.880893065E0
5.692703000E0,-1.157093811E-1,-6.765481110E0,2.070344696E0,7.076118319E0
5.702740000E0,-1.177750854E0,-7.851323090E0,-9.949809265E-1,8.001272297E0
5.712777000E0,1.196012878E-1,-8.275091858E0,1.545985107E0,8.419116324E0
5.722815000E0,1.147364044E0,-9.304351501E0,9.707313538E-1,9.424952014E0
5.732852000E0,1.587299194E0,-1.009725266E1,1.732497253E0,1.036704281E1
5.742889000E0,1.721869354E0,-1.022538620E1,1.865121460E0,1.053575033E1
5.752926000E0,3.115621033E0,-9.763895874E0,1.881736908E0,1.042025388E1
5.762964000E0,4.560266876E0,-1.070483917E1,2.182611237E0,1.183864044E1
5.773001000E0,6.264323273E0,-1.281604889E1,2.709365845E-1,1.426766490E1
5.783038000E0,6.573280792E0,-1.381806519E1,-2.591560822E0,1.551976589E1
5.793075000E0,5.640720062E0,-1.323517731E1,-9.632469177E-1,1.441927480E1
5.803113000E0,5.281167755E0,-1.255259674E1,-2.457888794E-1,1.362052972E1
5.813150000E0,5.468278656E0,-1.192480225E1,-1.211879883E0,1.317465874E1
5.823187000E0,5.719156952E0,-1.011252090E1,-2.390528870E0,1.186113247E1
5.833225000E0,5.951473846E0,-8.729397125E0,-2.185904388E0,1.078891065E1
5.843262000E0,7.159761200E0,-8.400531006E0,1.184037781E-1,1.103834775E1
5.853299000E0,8.202343140E0,-8.189918976E0,1.518891449E0,1.169017695E1
5.863336000E0,7.113208008E0,-7.889493713E0,1.394799500E0,1.071388374E1
5.873374000E0,5.943240967E0,-8.174051971E0,1.014290771E0,1.015706772E1
5.883411000E0,5.244344330E0,-8.268206177E0,6.628216553E-1,9.813547441E0
5.893448000E0,4.807852020E0,-8.485554199E0,5.779481506E-1,9.770061166E0
5.903486000E0,4.251459045E0,-8.871152344E0,5.189707947E-1,9.850968410E0
5.913523000E0,3.871100006E0,-9.209748230E0,2.888992310E-1,9.994415465E0
5.923560000E0,3.648213501E0,-9.518556061E0,-6.436614990E-3,1.019374380E1
5.933597000E0,3.568130035E0,-9.857750702E0,-2.161505127E-1,1.048587249E1
5.943635000E0,3.326233063E0,-9.821526031E0,-4.483177185E-1,1.037917091E1
5.953672000E0,3.353925476E0,-9.135502625E0,-3.614982605E-1,9.738424169E0
5.963709000E0,3.047063599E0,-8.743916931E0,1.155596924E-1,9.260347397E0
5.973746000E0,3.169059906E0,-8.244705048E0,3.201841736E-1,8.838586986E0
5.983784000E0,3.273692322E0,-7.939040680E0,2.923420715E-1,8.592490455E0
5.993821000E0,3.663332062E0,-8.070617065E0,1.525328064E-1,8.864430488E0
6.003858000E0,4.194876709E0,-8.601712646E0,1.833686829E-1,9.571837605E0
6.013895000E0,4.564458160E0,-9.082662506E0,3.508703613E-1,1.017114283E1
6.023933000E0,4.737348633E0,-9.238039398E0,6.670129395E-1,1.040330478E1
6.033970000E0,4.580325165E0,-8.902586975E0,9.150471497E-1,1.005349416E1
6.044007000E0,4.018244019E0,-8.443341980E0,1.168919220E0,9.423517439E0
6.054045000E0,3.415896606E0,-8.363707581E0,1.561552734E0,9.168336875E0
6.064082000E0,3.231929169E0,-8.285121002E0,1.621278534E0,9.039753329E0
6.074119000E0,3.635190582E0,-8.437354431E0,1.198258209E0,9.264954566E0
6.084156000E0,4.250710602E0,-8.706494751E0,6.972500610E-1,9.713791696E0
6.094194000E0,5.023852844E0,-8.961115265E0,1.228944397E-1,1.027403461E1
6.104231000E0,5.201084290E0,-8.980275421E0,9.580078125E-3,1.037770284E1
6.114268000E0,5.177583160E0,-9.025481415E0,2.546205139E-1,1.040824259E1
6.124305000E0,5.123096466E0,-8.709937592E0,4.125421143E-1,1.011332395E1
6.134343000E0,4.777764587E0,-8.495134277E0,1.599274292E0,9.876842568E0
6.144380000E0,4.556524658E0,-9.002878418E0,1.944306793E0,1.027589732E1
6.154417000E0,4.252057800E0,-9.071286163E0,1.530118103E0,1.013456904E1
6.164455000E0,4.314477997E0,-8.744365997E0,1.139280853E0,9.817159362E0
6.174492000E0,4.780009918E0,-8.294701080E0,5.656736755E-1,9.590127608E0
6.184529000E0,4.897365875E0,-8.208031311E0,1.101708984E-1,9.558666651E0
6.194566000E0,5.138065338E0,-8.560398560E0,2.481838989E-1,9.987078360E0
6.204604000E0,5.308710480E0,-9.108259277E0,3.189866638E-1,1.054725303E1
6.214641000E0,4.872517548E0,-9.393266602E0,4.766088867E-1,1.059254647E1
6.224678000E0,3.900738373E0,-9.323361969E0,9.514215088E-1,1.015115960E1
6.234715000E0,3.161126404E0,-8.893006897E0,1.140178986E0,9.506750230E0
6.244753000E0,3.314108276E0,-8.519084473E0,6.954537964E-1,9.167429842E0
6.254790000E0,3.923491058E0,-8.255782013E0,1.175056458E-1,9.141418178E0
6.264827000E0,4.198020172E0,-8.030051422E0,-2.543211365E-1,9.064754737E0
6.274865000E0,4.359833679E0,-8.150700531E0,1.074765015E-1,9.244112724E0
6.284902000E0,4.536765747E0,-8.527167664E0,3.966751099E-1,9.667066926E0
6.294938000E0,4.702620850E0,-8.657396851E0,5.779481506E-1,9.869102652E0
6.304975000E0,4.249812469E0,-8.376131744E0,9.138496399E-1,9.436928006E0
6.315013000E0,3.450774078E0,-8.114625549E0,1.087488556E0,8.884684626E0
6.325050000E0,3.230581970E0,-8.219407654E0,5.367837524E-1,8.847794010E0
6.335087000E0,3.186723175E0,-8.460107117E0,3.966751099E-1,9.049086593E0
6.345124000E0,3.430865479E0,-8.703950043E0,9.241781616E-1,9.401259998E0
6.355162000E0,3.745810547E0,-8.552315369E0,1.728455658E0,9.495301669E0
6.365199000E0,4.483027496E0,-8.453071747E0,1.810634766E0,9.738087890E0
6.375236000E0,5.726791077E0,-8.244854736E0,1.670376434E0,1.017663614E1
6.385274000E0,5.774841156E0,-8.419990540E0,9.285191345E-1,1.025217922E1
6.395311000E0,5.689668274E0,-8.521778870E0,5.519023132E-1,1.026146365E1
6.405348000E0,5.769152985E0,-8.597072296E0,1.730401611E-1,1.035484047E1
6.415385000E0,5.629343719E0,-8.825048218E0,-2.182461548E-1,1.046989103E1
6.425423000E0,5.395080872E0,-9.021589508E0,-6.551875305E-1,1.053210547E1
6.435460000E0,5.511538696E0,-9.115144958E0,-1.085542603E0,1.070706912E1
6.445497000E0,5.487438812E0,-9.234746246E0,-1.412762146E0,1.083459366E1
6.455534000E0,5.040019226E0,-8.884624329E0,-1.509610748E0,1.032556380E1
6.465572000E0,4.770878906E0,-8.578510895E0,-1.310674438E0,9.903029950E0
6.475609000E0,4.615502014E0,-8.762777710E0,-9.526190186E-1,9.949704269E0
6.485646000E0,4.383185120E0,-9.243727570E0,-4.369413757E-1,1.023961566E1
6.495683000E0,4.123325500E0,-9.652078400E0,3.453318787E-1,1.050160391E1
6.505721000E0,4.050277405E0,-9.706864471E0,1.084494781E0,1.057374550E1
6.515758000E0,3.981420593E0,-9.251810760E0,1.543889465E0,1.018976481E1
6.525795000E0,4.116439819E0,-8.676856384E0,1.409918060E0,9.706739022E0
6.535833000E0,4.088597717E0,-8.472231903E0,9.264234924E-1,9.452703592E0
6.545870000E0,4.191583557E0,-8.443042603E0,6.075865173E-1,9.445819312E0
6.555907000E0,4.543202362E0,-8.654253387E0,1.207987976E-1,9.775038708E0
6.565944000E0,4.601281586E0,-8.835227051E0,-1.169068909E-1,9.962263623E0
6.575982000E0,4.624034271E0,-8.823401642E0,7.304809570E-2,9.961899693E0
6.586019000E0,4.632416840E0,-8.560398560E0,4.749623108E-1,9.745014031E0
6.596056000E0,4.474644928E0,-8.311466217E0,5.755531311E-1,9.456964593E0
6.606093000E0,4.960085449E0,-8.090525665E0,9.771679688E-1,9.540121092E0
6.616131000E0,5.194647675E0,-8.140521698E0,8.213420105E-1,9.691597426E0
6.626168000E0,5.046306152E0,-8.318351898E0,5.355862427E-1,9.744077007E0
6.636205000E0,4.452940063E0,-8.544830933E0,4.324507141E-1,9.645196965E0
6.646243000E0,4.115841064E0,-8.635991364E0,5.700146484E-1,9.583601160E0
6.656280000E0,3.928730164E0,-8.489895172E0,1.120420074E0,9.421708013E0
6.666317000E0,4.000880127E0,-8.236322479E0,1.606010284E0,9.296414298E0
6.676354000E0,4.679868164E0,-8.306376801E0,1.692530365E0,9.683063597E0
6.686392000E0,5.053790588E0,-8.285719757E0,1.779649200E0,9.867172973E0
6.696429000E0,5.198090515E0,-8.363707581E0,1.865121460E0,1.002249607E1
6.706466000E0,5.229076080E0,-8.811276855E0,1.911075897E0,1.042276583E1
6.716503000E0,4.577630768E0,-9.049281921E0,1.474733276E0,1.024788002E1
6.726541000E0,4.655917969E0,-8.917106781E0,6.713539124E-1,1.008181936E1
6.736578000E0,5.258115692E0,-8.565637665E0,4.469705200E-1,1.006070136E1
6.746615000E0,5.689069519E0,-8.307274933E0,6.842271423E-1,1.009180339E1
6.756653000E0,5.839955750E0,-8.114176483E0,1.005608826E0,1.004769587E1
6.766690000E0,5.637726288E0,-7.893086243E0,1.302890625E0,9.786842806E0
6.776727000E0,5.722749481E0,-7.557933197E0,1.479523315E0,9.594853051E0
6.786764000E0,6.129603424E0,-7.574548645E0,1.403481445E0,9.844571371E0
6.796802000E0,6.390211487E0,-7.851472778E0,1.199904785E0,1.019412572E1
6.806839000E0,6.937623138E0,-8.461604004E0,9.909393311E-1,1.098687025E1
6.816876000E0,6.965614929E0,-8.809630280E0,6.138734436E-1,1.124749828E1
6.826913000E0,6.708000641E0,-8.694669342E0,3.513194275E-1,1.098717311E1
6.836951000E0,5.944588165E0,-8.324489136E0,4.131408691E-1,1.023747690E1
6.846988000E0,4.756508789E0,-7.967930603E0,2.897973633E-1,9.284194982E0
6.857025000E0,3.394640808E0,-7.818241882E0,3.254232788E-1,8.529618553E0
6.867063000E0,2.348765717E0,-7.758516083E0,6.873706055E-1,8.135339609E0
6.877100000E0,2.516566772E0,-8.203540649E0,9.369017029E-1,8.631857987E0
6.887137000E0,3.575165405E0,-8.041128387E0,1.289568329E0,8.894073302E0
6.897174000E0,4.945865021E0,-7.940387878E0,1.218466187E0,9.433769147E0
6.907212000E0,5.350323944E0,-7.939489746E0,1.082399139E0,9.634991003E0
6.917249000E0,5.091961212E0,-7.419022064E0,1.071771240E0,9.061934174E0
6.927286000E0,4.976251831E0,-7.477250977E0,1.122515717E0,9.051652114E0
6.937323000E0,4.096980286E0,-7.342381439E0,7.312294006E-1,8.439816888E0
6.947361000E0,3.511847076E0,-7.304959259E0,3.365002441E-1,8.112258137E0
6.957398000E0,3.345842285E0,-7.587272186E0,2.472857666E-1,8.295933346E0
6.967435000E0,3.238814850E0,-7.774233398E0,-7.783813477E-2,8.422273169E0
6.977472000E0,3.701802063E0,-8.124505005E0,-3.225791931E-1,8.933922846E0
6.987510000E0,4.999902649E0,-8.660390625E0,-4.550537109E-2,1.000017315E1
6.997547000E0,6.140081635E0,-8.821605377E0,2.442919922E-1,1.075086055E1
7.007584000E0,6.816674652E0,-8.768465881E0,-1.754351807E-1,1.110782718E1
7.017622000E0,7.046446838E0,-8.691825256E0,-6.158193970E-1,1.120622474E1
7.027659000E0,7.278614044E0,-8.697214050E0,-4.215234375E-1,1.134889583E1
7.037696000E0,7.463629303E0,-8.845106506E0,-2.799179077E-2,1.157335107E1
7.047733000E0,6.963369598E0,-8.947792969E0,1.254391479E-1,1.133874994E1
7.057771000E0,6.215973816E0,-8.953181763E0,4.418811035E-1,1.090839370E1
7.067808000E0,5.518873444E0,-8.984466705E0,7.783813477E-1,1.057281815E1
7.077845000E0,5.236560516E0,-8.932225342E0,7.625143433E-1,1.038208282E1
7.087882000E0,5.216651917E0,-8.803642731E0,9.048683167E-1,1.027308957E1
7.097920000E0,5.491031342E0,-8.646170197E0,1.119372253E0,1.030343042E1
7.107957000E0,5.740562439E0,-8.572673035E0,1.042282562E0,1.036972194E1
7.117994000E0,5.815855865E0,-8.462053070E0,7.836204529E-1,1.029779504E1
7.128032000E0,5.695655823E0,-8.278983765E0,4.327500916E-1,1.005829708E1
7.138069000E0,5.414241028E0,-8.074958038E0,2.613565063E-1,9.725598205E0
7.148106000E0,4.768633575E0,-7.849077759E0,1.832189941E-1,9.185938005E0
7.158143000E0,4.599485321E0,-7.739505615E0,4.390370178E-1,9.013765356E0
7.168181000E0,4.560566254E0,-7.584577789E0,8.478369141E-1,8.890636211E0
7.178218000E0,4.766987000E0,-7.570357361E0,1.205592957E0,9.027066522E0
7.188255000E0,4.986879730E0,-7.782615967E0,1.429976349E0,9.353230089E0
7.198292000E0,5.106481018E0,-8.088130646E0,1.673070831E0,9.710467123E0
7.208330000E0,5.096152496E0,-8.282725983E0,1.717528381E0,9.875435368E0
7.218367000E0,4.966671753E0,-8.162825317E0,1.589095459E0,9.686318694E0
7.228404000E0,4.523892517E0,-8.012088776E0,1.378483429E0,9.303729715E0
7.238442000E0,3.866609344E0,-8.028704224E0,1.195114746E0,8.991054365E0
7.248479000E0,3.710184631E0,-8.202043762E0,1.363664246E0,9.104865296E0
7.258516000E0,3.958368530E0,-8.044271851E0,1.675016785E0,9.120563155E0
7.268553000E0,4.512965240E0,-7.898624725E0,1.736089783E0,9.261162754E0
7.278591000E0,5.399122467E0,-8.096513214E0,1.284628601E0,9.816023649E0
7.288628000E0,5.657335510E0,-8.413254547E0,6.888674927E-1,1.016183229E1
7.298665458E0,5.441933441E0,-8.256979523E0,3.827540588E-1,9.896405968E0
7.308702458E0,5.291945343E0,-7.968080292E0,3.061134338E-1,9.570198247E0
7.318740458E0,4.801565094E0,-7.805218964E0,5.204676819E-1,9.178635902E0
7.328777458E0,4.516408081E0,-7.782316589E0,9.960287476E-1,9.052870634E0
7.338814458E0,4.608466644E0,-7.801177368E0,1.293759613E0,9.152603295E0
7.348852458E0,4.814438324E0,-8.069569244E0,1.402882690E0,9.500781231E0
7.358889458E0,5.004992065E0,-8.351433105E0,1.342258759E0,9.828430142E0
7.368926458E0,4.964875488E0,-8.588090973E0,1.001417542E0,9.970362695E0
7.378963458E0,4.770878906E0,-8.735684052E0,5.586383057E-1,9.969229566E0
7.389001458E0,4.112098846E0,-8.665629730E0,4.381388855E-1,9.601794688E0
7.399038458E0,3.555107117E0,-8.523575134E0,3.838018799E-1,9.243236639E0
7.409075458E0,3.374881897E0,-8.290060730E0,3.293151855E-1,8.956750706E0
7.419112458E0,3.345991974E0,-7.841144257E0,5.548960876E-1,8.543249687E0
7.429150458E0,3.525468750E0,-7.385192413E0,4.700225830E-1,8.197006656E0
7.439187458E0,4.471950531E0,-7.993976440E0,1.990859985E-1,9.161966826E0
7.449224458E0,5.293591919E0,-8.714727631E0,6.092330933E-1,1.021468345E1
7.459262458E0,5.784271545E0,-9.032666473E0,3.841012573E-1,1.073286517E1
7.469299458E0,5.765111389E0,-9.067843323E0,-2.844085693E-2,1.074537578E1
7.479336458E0,6.661447449E0,-9.269773407E0,7.888595581E-2,1.141533198E1
7.489373458E0,7.051835632E0,-9.212143250E0,7.668553162E-1,1.162669498E1
7.499411458E0,6.872658234E0,-9.306896210E0,6.198609924E-1,1.158602503E1
7.509448458E0,6.514004059E0,-9.175319824E0,-6.451583862E-2,1.125268435E1
7.519485458E0,5.623505859E0,-8.884175262E0,-3.523672485E-1,1.052029234E1
7.529522458E0,4.634811859E0,-8.283923492E0,2.035766602E-1,9.494541213E0
7.539560458E0,4.058659973E0,-7.877069550E0,9.169931030E-1,8.908525232E0
7.549597458E0,3.719465332E0,-7.579039307E0,1.345701599E0,8.549103576E0
7.559634458E0,3.788172455E0,-7.601043549E0,1.546733551E0,8.632409759E0
7.569672458E0,4.271217957E0,-8.677754517E0,1.232985992E0,9.750229779E0
7.579709458E0,5.138664093E0,-9.439221039E0,1.033600616E0,1.079690200E1
7.589746458E0,5.447172546E0,-9.689500580E0,3.092568970E-1,1.111997078E1
7.599783458E0,5.094056854E0,-9.231752472E0,4.569996643E-1,1.055383900E1
7.609821458E0,4.605921936E0,-8.238867188E0,1.231938171E0,9.518987397E0
7.619858458E0,4.129462738E0,-7.506739655E0,1.114133148E0,8.639727740E0
7.629895458E0,4.205953674E0,-7.410789185E0,1.022224274E0,8.582236603E0
7.639932458E0,4.720284119E0,-7.833360443E0,1.172811127E0,9.220526229E0
7.649970458E0,5.154381409E0,-8.375682678E0,1.380878448E0,9.931089231E0
7.660007458E0,5.084327087E0,-8.638685760E0,1.582359467E0,1.014796211E1
7.670044458E0,4.815037079E0,-8.835077362E0,1.744172974E0,1.021201809E1
7.680082458E0,4.750521240E0,-8.958869934E0,1.545236664E0,1.025751232E1
7.690119458E0,4.890929260E0,-9.091793518E0,1.034648438E0,1.037556725E1
7.700156458E0,4.921615448E0,-9.113797760E0,8.870553589E-1,1.039569504E1
7.710193458E0,5.189857635E0,-9.031019897E0,7.096742249E-1,1.044019062E1
7.720231458E0,5.387746124E0,-8.970246277E0,6.515950012E-1,1.048416437E1
7.730268458E0,5.490432587E0,-8.775351563E0,5.831872559E-1,1.036782293E1
7.740305458E0,5.477559357E0,-8.605005798E0,6.117778015E-1,1.021880880E1
7.750342458E0,5.122946777E0,-8.337512054E0,5.260061646E-1,9.799763947E0
7.760380458E0,4.981490936E0,-8.144413605E0,4.165837097E-1,9.556163817E0
7.770417458E0,4.491859131E0,-8.071215820E0,3.067121887E-1,9.242044992E0
7.780454458E0,3.968697052E0,-8.092022552E0,1.612147522E-1,9.014287297E0
7.790492458E0,4.100572815E0,-8.253985748E0,3.929328918E-1,9.224823814E0
7.800529458E0,3.732937317E0,-8.155939636E0,6.372248840E-1,8.992231531E0
7.810566458E0,4.431983643E0,-8.578211517E0,7.788304138E-1,9.686834811E0
7.820603458E0,4.718936920E0,-8.773405609E0,8.370593262E-1,9.997083572E0
7.830641458E0,4.778363342E0,-8.457113342E0,7.524851990E-1,9.742779700E0
7.840678458E0,5.519921265E0,-8.394543457E0,7.194039917E-1,1.007250876E1
7.850715458E0,5.683381348E0,-8.493936768E0,3.736230469E-1,1.022679713E1
7.860753458E0,5.556744690E0,-8.669222260E0,3.680845642E-1,1.030380087E1
7.870790458E0,4.896168365E0,-8.622220001E0,3.357518005E-1,9.921082183E0
7.880827458E0,4.375550995E0,-8.408913574E0,5.261558533E-1,9.493793446E0
7.890864458E0,3.975882111E0,-8.134983215E0,6.129753113E-1,9.075314276E0
7.900902458E0,4.147275696E0,-7.963889008E0,9.222322083E-1,9.026291380E0
7.910939458E0,4.159699860E0,-7.849676514E0,1.142723694E0,8.956915860E0
7.920976458E0,4.462969208E0,-7.813002777E0,1.208137665E0,9.078584866E0
7.931013458E0,4.864733734E0,-8.136180725E0,1.502725067E0,9.597981753E0
7.941051458E0,4.779111786E0,-8.475824432E0,1.358275452E0,9.824684294E0
7.951088458E0,4.561763763E0,-8.497080231E0,8.665480042E-1,9.683024658E0
7.961125458E0,4.346212006E0,-8.385711823E0,5.388793945E-1,9.460449914E0
7.971163458E0,4.359085236E0,-8.266559601E0,4.489164734E-1,9.356236301E0
7.981200458E0,4.483476562E0,-8.110583954E0,5.430706787E-1,9.283213879E0
7.991237458E0,4.410129089E0,-8.042325897E0,5.827381897E-1,9.190638075E0
8.001274458E0,4.671335907E0,-8.055049438E0,7.223977661E-1,9.339542770E0
8.011312458E0,5.093907166E0,-8.228388977E0,9.554631042E-1,9.724566063E0
8.021349458E0,5.409600677E0,-8.527467041E0,1.016236725E0,1.014959165E1
8.031386458E0,5.560935974E0,-8.779991913E0,1.115031281E0,1.045253853E1
8.041423458E0,5.624104614E0,-8.823401642E0,1.343306580E0,1.054928632E1
8.051461458E0,5.788911896E0,-8.632548523E0,1.361718292E0,1.048268437E1
8.061498458E0,5.722749481E0,-8.595725098E0,1.268013153E0,1.040404772E1
8.071535458E0,5.351970520E0,-8.592881012E0,8.717871094E-1,1.016076795E1
8.081573458E0,5.292244720E0,-8.699160004E0,2.863545227E-1,1.018652236E1
8.091610458E0,5.015619965E0,-8.587342529E0,1.475930786E-1,9.945887545E0
8.101647458E0,4.753215637E0,-8.121960297E0,3.450325012E-1,9.416918040E0
8.111684458E0,4.724924469E0,-7.553891602E0,8.018824768E-1,8.945904374E0
8.121722458E0,4.872966614E0,-7.297025757E0,1.372196503E0,8.881177386E0
8.131759458E0,5.129233704E0,-7.499255219E0,1.857936401E0,9.273607437E0
8.141796458E0,5.484145660E0,-8.048762512E0,1.931134186E0,9.929134446E0
8.151833458E0,6.127807159E0,-8.544681244E0,2.181713104E0,1.073878346E1
8.161871458E0,6.522835693E0,-9.041049042E0,1.964215393E0,1.132016322E1
8.171908458E0,6.344406738E0,-9.093889160E0,1.322350159E0,1.116686737E1
8.181945458E0,6.034700775E0,-8.918004913E0,7.867639160E-1,1.079663941E1
8.191983458E0,5.429060211E0,-8.610394592E0,4.357438660E-1,1.018839843E1
8.202020458E0,4.679119720E0,-8.292904816E0,3.252735901E-1,9.527446381E0
8.212057458E0,4.026027832E0,-8.016579437E0,5.719606018E-1,8.988970181E0
8.222094458E0,4.010609894E0,-7.973319397E0,1.033151550E0,8.984776906E0
8.232132458E0,4.049678650E0,-8.069718933E0,1.330133972E0,9.126309068E0
8.242169458E0,4.387077026E0,-7.889793091E0,1.492845612E0,9.150074747E0
8.252206458E0,5.325625305E0,-8.394244080E0,1.808688812E0,1.010430472E1
8.262244458E0,5.356461182E0,-8.403524780E0,1.408421173E0,1.006451963E1
8.272281458E0,4.538861389E0,-7.757767639E0,1.647474060E0,9.137745468E0
8.282318458E0,4.100123749E0,-7.635771332E0,9.147477722E-1,8.715089332E0
8.292355083E0,3.727698212E0,-7.742050323E0,7.518864441E-1,8.625567251E0
8.302393083E0,3.614832916E0,-7.708969116E0,1.092428284E0,8.584207675E0
8.312430083E0,3.880680084E0,-7.683522034E0,1.183588715E0,8.688905052E0
8.322467083E0,4.136198730E0,-7.703730011E0,1.207538910E0,8.826876358E0
8.332504083E0,4.615502014E0,-8.023914185E0,1.262474670E0,9.342371218E0
8.342542083E0,5.148543549E0,-8.601712646E0,1.394051056E0,1.012128151E1
8.352579083E0,5.149591370E0,-8.954379272E0,1.031654663E0,1.038092052E1
8.362616083E0,4.667593689E0,-8.673263855E0,3.520678711E-1,9.855754082E0
8.372654083E0,5.242248688E0,-8.585097198E0,4.990621948E-1,1.007145115E1
8.382691083E0,5.413342896E0,-9.305249634E0,1.854643250E-1,1.076690991E1
8.392728083E0,5.370382233E0,-9.454638977E0,-4.610412598E-2,1.087351503E1
8.402765083E0,5.576054535E0,-9.238638153E0,-1.137634277E-2,1.079096606E1
8.412803083E0,5.460943909E0,-8.924740906E0,1.095721436E-1,1.046350394E1
8.422840083E0,5.170098724E0,-8.574918365E0,6.480024719E-1,1.003389521E1
8.432877083E0,4.936883698E0,-8.353678436E0,1.410367126E0,9.805401547E0
8.442915083E0,4.703668671E0,-8.144413605E0,1.764081573E0,9.569114678E0
8.452952083E0,4.586761780E0,-7.975415039E0,1.832938385E0,9.381113569E0
8.462989083E0,4.662653961E0,-7.987839203E0,1.917961578E0,9.445871781E0
8.473026083E0,4.587659912E0,-8.059839478E0,1.824406128E0,9.451777272E0
8.483064083E0,4.440964966E0,-8.349187775E0,1.405128021E0,9.560621898E0
8.493101083E0,4.326004028E0,-8.600664825E0,8.164022827E-1,9.661897276E0
8.503138083E0,4.063300323E0,-8.630602570E0,3.385958862E-1,9.545279326E0
8.513175083E0,3.921245728E0,-8.441695404E0,2.986289978E-1,9.312763748E0
8.523213083E0,4.036506042E0,-8.385262756E0,5.063969421E-1,9.320002703E0
8.533250083E0,4.242178345E0,-8.362659760E0,7.514373779E-1,9.407168197E0
8.543287083E0,4.491260376E0,-8.179889832E0,1.034947815E0,9.388990063E0
8.553325083E0,4.938979340E0,-8.036937103E0,1.308878174E0,9.523604202E0
8.563362083E0,5.452860718E0,-8.000562744E0,1.444795532E0,9.789286407E0
8.573399083E0,5.911357269E0,-8.097860413E0,1.413360901E0,1.012507171E1
8.583436083E0,6.116580505E0,-8.416697388E0,1.285227356E0,1.048356625E1
8.593474083E0,5.563031616E0,-8.748557281E0,9.123527527E-1,1.040754355E1
8.603511083E0,4.958738251E0,-9.180708618E0,2.441423035E-1,1.043715005E1
8.613548083E0,4.794080658E0,-9.254355469E0,2.056723022E-1,1.042442351E1
8.623586083E0,4.834646301E0,-9.109606476E0,2.386038208E-1,1.031579695E1
8.633623083E0,4.849016418E0,-8.870852966E0,4.314028931E-1,1.011884880E1
8.643660083E0,4.814887390E0,-8.647667084E0,6.080355835E-1,9.916400246E0
8.653697083E0,4.879552917E0,-8.352181549E0,9.984237671E-1,9.724496045E0
8.663735083E0,4.879702606E0,-8.105344849E0,1.335971832E0,9.554733559E0
8.673772083E0,4.818330231E0,-8.125403137E0,1.059796143E0,9.505874511E0
8.683809083E0,4.933141479E0,-8.489745483E0,8.878038025E-1,9.858998875E0
8.693846083E0,4.559069366E0,-8.578211517E0,1.056652679E0,9.771762441E0
8.703884083E0,4.149820404E0,-8.511899414E0,1.072819061E0,9.530182672E0
8.713921083E0,3.801943817E0,-8.180338898E0,1.426084442E0,9.132712527E0
8.723958083E0,3.578009491E0,-7.995623016E0,1.638941803E0,8.911692857E0
8.733996083E0,3.676205292E0,-8.001161499E0,1.804048462E0,8.988195677E0
8.744033083E0,4.178710327E0,-8.080197144E0,2.154170380E0,9.348350437E0
8.754070083E0,4.993316345E0,-8.405321045E0,2.304158478E0,1.004448985E1
8.764107083E0,5.549559631E0,-8.804091797E0,1.763482819E0,1.055554433E1
8.774145083E0,5.447920990E0,-8.616681519E0,1.107097778E0,1.025439949E1
8.784182083E0,5.407205658E0,-8.546028442E0,3.805087280E-1,1.012014141E1
8.794219083E0,5.188809814E0,-8.628207550E0,2.718347168E-1,1.007192171E1
8.804257083E0,4.596790924E0,-8.444988556E0,6.876699829E-1,9.639564747E0
8.814294083E0,4.425247650E0,-8.518934784E0,1.144819336E0,9.667764888E0
8.824331083E0,4.425996094E0,-8.413254547E0,1.370250549E0,9.604680113E0
8.834368083E0,4.868925018E0,-8.473130035E0,7.640112305E-1,9.802248548E0
8.844406083E0,5.694308624E0,-8.687334595E0,4.049079895E-1,1.039513750E1
8.854443083E0,5.657485199E0,-8.407117310E0,1.556762695E-2,1.013345956E1
8.864480083E0,5.306315460E0,-8.074508972E0,3.472778320E-1,9.668261519E0
8.874517083E0,4.520599365E0,-8.227939911E0,7.556286621E-1,9.418375044E0
8.884555083E0,4.272714844E0,-8.560847626E0,9.562115479E-1,9.615536633E0
8.894592083E0,4.910987549E0,-8.845555573E0,1.057550812E0,1.017251522E1
8.904629083E0,5.250930634E0,-8.705596619E0,6.644682312E-1,1.018828754E1
8.914667083E0,5.222040710E0,-8.539292450E0,4.700225830E-1,1.002048631E1
8.924704083E0,4.861590271E0,-8.369994507E0,3.773652649E-1,9.686809204E0
8.934741083E0,4.440515900E0,-8.173902283E0,4.655319214E-1,9.313838089E0
8.944778083E0,3.781885529E0,-7.800428925E0,7.801776123E-1,8.703908700E0
8.954816083E0,3.612886963E0,-7.942034454E0,1.093775482E0,8.793475325E0
8.964853083E0,3.653901672E0,-8.311765594E0,1.205892334E0,9.159182335E0
8.974890083E0,3.900289307E0,-8.641529846E0,1.174607391E0,9.553428562E0
8.984928083E0,4.413122864E0,-8.959169312E0,1.583856354E0,1.011192213E1
8.994965083E0,5.089416504E0,-8.912616119E0,1.994751892E0,1.045542546E1
9.005002083E0,5.340294800E0,-8.339607697E0,1.669478302E0,1.004265716E1
9.015039083E0,5.622008972E0,-8.191415863E0,1.075513458E0,9.993148049E0
9.025077083E0,5.697751465E0,-8.281827850E0,8.629554749E-1,1.008948643E1
9.035114083E0,5.288502502E0,-8.371790771E0,7.688012695E-1,9.932079079E0
9.045151083E0,4.994364166E0,-8.688981171E0,1.251846771E0,1.009995978E1
9.055189083E0,4.741689606E0,-8.925040283E0,1.704056396E0,1.024908643E1
9.065226083E0,4.845124512E0,-8.953181763E0,1.594783630E0,1.030427242E1
9.075263083E0,4.798271942E0,-8.968749390E0,9.824070740E-1,1.021895312E1
9.085300083E0,4.620741119E0,-8.969348145E0,4.884342957E-1,1.010143666E1
9.095338083E0,4.400099945E0,-8.844657440E0,3.385958862E-1,9.884507673E0
9.105375083E0,4.275708618E0,-8.564140778E0,5.794450378E-1,9.589679244E0
9.115412083E0,4.258644104E0,-8.306975555E0,9.678872681E-1,9.385025213E0
9.125449083E0,4.450994110E0,-8.026009827E0,1.210832062E0,9.257121399E0
9.135487083E0,4.678520966E0,-7.898924103E0,1.022823029E0,9.237300870E0
9.145524083E0,5.031786346E0,-8.031398621E0,6.665638733E-1,9.500870751E0
9.155561083E0,5.093308411E0,-8.335865479E0,2.189945984E-1,9.771202714E0
9.165599083E0,4.966821442E0,-8.518934784E0,-7.185058594E-3,9.861116403E0
9.175636083E0,4.797074432E0,-8.404422913E0,2.420466614E-1,9.680125732E0
9.185673083E0,4.849016418E0,-8.258177032E0,6.695576477E-1,9.599935186E0
9.195710083E0,5.051844635E0,-8.100255432E0,1.100511475E0,9.609703314E0
9.205748083E0,5.326972504E0,-8.052355042E0,1.286724243E0,9.740262679E0
9.215785083E0,4.910089417E0,-8.576265564E0,9.518705750E-1,9.928109926E0
9.225822083E0,5.140310669E0,-8.262218628E0,6.840774536E-2,9.730967580E0
9.235860083E0,5.009482727E0,-8.715326385E0,6.758445740E-1,1.007514750E1
9.245897083E0,4.782704315E0,-9.127868500E0,1.278191986E0,1.038393079E1
9.255934083E0,4.993765411E0,-9.276210022E0,1.438059540E0,1.063267514E1
9.265971083E0,5.159021759E0,-8.758885803E0,2.370769958E0,1.043810980E1
9.276009083E0,5.151387634E0,-8.017477570E0,2.210603027E0,9.782816920E0
9.286046083E0,4.863985291E0,-7.385791168E0,1.898801422E0,9.045093196E0
9.296083583E0,3.769760742E0,-6.879394226E0,1.238524475E0,7.941731791E0
9.306121583E0,3.204087067E0,-7.118447113E0,9.584568787E-1,7.864928660E0
9.316158583E0,3.203638000E0,-7.840994568E0,1.099313965E0,8.541251866E0
9.326195583E0,3.808081055E0,-8.638835449E0,8.771759033E-1,9.481581978E0
9.336232583E0,4.691992950E0,-9.172176361E0,3.565585327E-1,1.030877059E1
9.346270583E0,5.517825623E0,-9.418264618E0,3.442840576E-2,1.091564443E1
9.356307583E0,5.683980103E0,-9.178313599E0,1.005908203E-1,1.079625809E1
9.366344583E0,5.521418152E0,-8.592581635E0,3.068618774E-1,1.021825238E1
9.376381583E0,5.512436829E0,-8.390352173E0,1.021924896E0,1.009105048E1
9.386419583E0,5.453609161E0,-8.443192291E0,1.172362061E0,1.011947537E1
9.396456583E0,5.314248962E0,-8.280929718E0,1.046324158E0,9.894939781E0
9.406493583E0,4.655468903E0,-7.943082275E0,8.433462524E-1,9.245386938E0
9.416531583E0,3.662134552E0,-7.960296478E0,6.066883850E-1,8.783257955E0
9.426568583E0,2.707270203E0,-7.989186401E0,5.152285767E-1,8.451146182E0
9.436605583E0,3.127596130E0,-8.466843109E0,6.978488159E-1,9.052970936E0
9.446642583E0,5.415887604E0,-9.563312988E0,3.941304016E-1,1.099746028E1
9.456680583E0,8.891659698E0,-1.000145187E1,3.562591553E-2,1.338252297E1
9.466717583E0,8.327931976E0,-8.855135651E0,6.496490479E-2,1.215615477E1
9.476754583E0,7.108567657E0,-8.365354156E0,5.298980713E-2,1.097787285E1
9.486792583E0,5.823340302E0,-8.027806091E0,5.583389282E-1,9.933212233E0
9.496829583E0,4.793781281E0,-7.769593048E0,3.638932800E-1,9.136702546E0
9.506866583E0,4.261488190E0,-8.191116486E0,1.021924896E0,9.289725581E0
9.516903583E0,3.391497345E0,-8.455167389E0,1.927541656E0,9.311687637E0
9.526941583E0,2.830464020E0,-8.436007233E0,2.214644623E0,9.169645326E0
9.536978583E0,2.885399780E0,-8.184979248E0,2.157313843E0,8.942785931E0
9.547015583E0,3.101101227E0,-7.845784607E0,2.118843842E0,8.698428832E0
9.557053583E0,1.688937836E0,-8.267607422E0,2.179467773E0,8.715269547E0
9.567090583E0,2.456242218E0,-1.018062927E1,3.251388702E0,1.096585002E1
9.577127583E0,3.728895721E0,-9.692344666E0,3.852538605E0,1.107647336E1
9.587164583E0,5.435197449E0,-8.380023651E0,1.917213135E0,1.017063783E1
9.597202583E0,6.786437531E0,-8.472381592E0,-2.076781311E0,1.105214933E1
9.607239583E0,6.328390045E0,-9.240284729E0,-3.146456909E0,1.163320994E1
9.617276583E0,5.411846008E0,-1.004306534E1,-9.217831421E-1,1.144556345E1
9.627313583E0,4.540957031E0,-1.007000931E1,1.011596375E0,1.109273210E1
9.637351583E0,4.606520691E0,-8.238118744E0,8.416996765E-1,9.476027209E0
9.647388583E0,4.205953674E0,-6.751709747E0,-7.408094788E-1,7.989019308E0
9.657425583E0,3.029550018E0,-7.548053741E0,-7.337741089E-1,8.166376984E0
9.667463583E0,2.789000244E0,-8.451574860E0,2.492317200E-1,8.903356469E0
9.677500583E0,3.348087616E0,-8.778345337E0,1.550326080E0,9.522213424E0
9.687537583E0,3.984414368E0,-9.206754456E0,2.248623962E0,1.028086549E1
9.697574583E0,4.765041046E0,-9.615105286E0,2.452949066E0,1.100785288E1
9.707612583E0,5.445675659E0,-9.470955048E0,1.891466675E0,1.108747127E1
9.717649583E0,5.622458038E0,-9.032516785E0,1.213676147E0,1.070847345E1
9.727686583E0,5.664969635E0,-8.568481750E0,8.909472656E-1,1.031040967E1
9.737724583E0,5.635331268E0,-8.296197968E0,8.824150085E-1,1.006789528E1
9.747761583E0,5.781128082E0,-8.004903717E0,1.009949799E0,9.925720327E0
9.757798583E0,5.742358704E0,-7.773934021E0,6.053411865E-1,9.683758134E0
9.767835583E0,5.287005615E0,-7.995024261E0,4.384382629E-1,9.595054425E0
9.777873583E0,4.836741943E0,-8.428373108E0,6.020480347E-1,9.736221429E0
9.787910583E0,4.561165009E0,-8.686286774E0,8.858578491E-1,9.850916114E0
9.797947583E0,4.523144073E0,-8.678053894E0,1.284029846E0,9.869963746E0
9.807985583E0,4.554429016E0,-8.344697113E0,1.647623749E0,9.648391451E0
9.818022583E0,4.594695282E0,-7.842192078E0,2.057022400E0,9.318934621E0
9.828059583E0,4.745731201E0,-7.211852875E0,2.570903778E0,9.007903905E0
9.838096583E0,4.848267975E0,-6.746021576E0,3.202141113E0,8.903270027E0
9.848134583E0,4.865482178E0,-6.913074188E0,3.986510010E0,9.346431063E0
9.858171583E0,5.044809265E0,-7.640112305E0,4.374054108E0,1.014661352E1
9.868208583E0,5.197491760E0,-7.730823669E0,3.825145569E0,1.007031746E1
9.878245583E0,4.593946838E0,-7.989336090E0,3.400478668E0,9.823293434E0
9.888283583E0,4.492757263E0,-8.512947235E0,2.728076935E0,1.000487592E1
9.898320583E0,4.582570496E0,-8.654852142E0,1.788031769E0,9.955072856E0
9.908357583E0,4.768483887E0,-8.547076263E0,6.054908752E-1,9.805996657E0
9.918395583E0,5.509293365E0,-8.083340607E0,-3.986210632E-1,9.790383420E0
9.928432583E0,5.912105713E0,-8.048014069E0,-5.263055420E-1,1.000002610E1
9.938469583E0,5.866899719E0,-8.228987732E0,3.203338623E-2,1.010632364E1
9.948506583E0,5.571863251E0,-8.312064972E0,9.883946228E-1,1.005549641E1
9.958544583E0,5.070256348E0,-8.578810272E0,1.796114960E0,1.012568586E1
9.968581583E0,4.456831970E0,-9.002279663E0,2.299967194E0,1.030505892E1
9.978618583E0,4.501588898E0,-8.835077362E0,2.168540497E0,1.015014593E1
9.988656583E0,4.759203186E0,-8.364156647E0,1.331181793E0,9.714997496E0
9.998693583E0,4.865033112E0,-8.272397461E0,-7.162605286E-1,9.623623853E0
1.000873058E1,4.217479706E0,-8.831484833E0,-5.854325867E-1,9.804335303E0
1.001876758E1,3.079845428E0,-1.058164536E1,7.029382324E-1,1.104313309E1
1.002880558E1,2.909948730E0,-1.018766464E1,6.816824341E-1,1.061701481E1
1.003884258E1,2.706821136E0,-9.418264618E0,8.514294434E-1,9.836438440E0
1.004887958E1,2.959645386E0,-8.581055603E0,5.469625854E-1,9.093579281E0
1.005891658E1,3.105142822E0,-7.317832489E0,2.814447327E0,8.432893812E0
1.006895458E1,3.793261871E0,-8.058941345E0,1.732197876E0,9.073912095E0
1.007899158E1,2.780018921E0,-9.945468292E0,-9.919871521E-1,1.037424133E1
1.008902858E1,3.817810822E0,-9.844578094E0,-1.872156830E0,1.072363597E1
1.009906658E1,5.468428345E0,-9.107361145E0,-2.382745056E0,1.088692838E1
1.010910358E1,6.104156342E0,-8.668324127E0,-5.679190063E-1,1.061711353E1
1.011914058E1,5.713319092E0,-8.693471832E0,8.803193665E-1,1.043999185E1
1.012917758E1,5.026696930E0,-9.268875275E0,1.273551636E0,1.062081281E1
1.013921558E1,5.056934052E0,-9.161398773E0,1.606309662E0,1.058697503E1
1.014925258E1,5.168152771E0,-8.678802338E0,1.733844452E0,1.024878674E1
1.015928958E1,4.987927551E0,-8.559350739E0,2.026485901E0,1.011180258E1
1.016932758E1,5.035528564E0,-8.386759644E0,2.150727539E0,1.001598294E1
1.017936458E1,5.382357330E0,-8.204289093E0,2.046244812E0,1.002333516E1
1.018940158E1,5.221292267E0,-8.007149048E0,1.284179535E0,9.644969979E0
1.019943858E1,4.430187378E0,-7.511829071E0,1.137634277E0,8.794790955E0
1.020947658E1,3.799997864E0,-7.312144318E0,1.318757629E0,8.345451454E0
1.021951358E1,3.042572937E0,-8.130492554E0,1.314266968E0,8.780060188E0
1.022955058E1,2.910397797E0,-8.634344788E0,1.093476105E0,9.177037389E0
1.023958858E1,3.149600372E0,-9.116192780E0,1.089434509E0,9.706277394E0
1.024962558E1,3.673660583E0,-9.389374695E0,1.308728485E0,1.016705019E1
1.025966258E1,4.516857147E0,-8.862470398E0,1.381776581E0,1.004264341E1
1.026969958E1,5.054688721E0,-8.075556793E0,1.131796417E0,9.594032453E0
1.027973758E1,5.137316895E0,-8.071365509E0,5.571414185E-1,9.583807835E0
1.028977458E1,4.518503723E0,-8.856632538E0,1.517843628E-1,9.943834990E0
1.029981133E1,4.115092621E0,-9.401649170E0,1.086590424E0,1.032015858E1
1.030984933E1,4.217030640E0,-9.365125122E0,1.797911224E0,1.042695549E1
1.031988633E1,4.794529724E0,-8.132737885E0,1.789828033E0,9.608976281E0
1.032992333E1,5.862409058E0,-6.893165588E0,1.247805176E0,9.134582067E0
1.033996033E1,6.304140472E0,-7.546706543E0,1.292262726E0,9.917908534E0
1.034999833E1,5.780828705E0,-8.497229919E0,6.113287354E-1,1.029536884E1
1.036003533E1,4.993915100E0,-9.868378601E0,1.074765015E-1,1.106054408E1
1.037007233E1,4.396956482E0,-1.041758652E1,5.331912231E-1,1.132005424E1
1.038010933E1,4.283193054E0,-9.551637268E0,7.994874573E-1,1.049850930E1
1.039014733E1,3.644321594E0,-8.512647858E0,7.720944214E-1,9.292060225E0
1.040018433E1,2.901117096E0,-8.535550232E0,1.218316498E0,9.097054098E0
1.041022133E1,3.431314545E0,-8.539292450E0,1.614542542E0,9.343456677E0
1.042025933E1,4.150119781E0,-8.375982056E0,1.829345856E0,9.525076160E0
1.043029633E1,5.032534790E0,-7.848628693E0,1.703307953E0,9.477797041E0
1.044033333E1,5.559888153E0,-7.785909119E0,1.617686005E0,9.703074002E0
1.045037033E1,5.721402283E0,-8.009843445E0,1.372645569E0,9.938621230E0
1.046040833E1,5.735622711E0,-8.530011749E0,1.105750580E0,1.033833413E1
1.047044533E1,5.428162079E0,-9.286688232E0,1.192420349E0,1.082263314E1
1.048048233E1,4.981490936E0,-9.182355194E0,8.776249695E-1,1.048337371E1
1.049052033E1,3.976181488E0,-8.886869659E0,7.777825928E-1,9.766852990E0
1.050055733E1,3.532354431E0,-9.009614410E0,8.771759033E-1,9.717001452E0
1.051059433E1,3.651057587E0,-8.957971802E0,7.900570679E-1,9.705651471E0
1.052063133E1,3.580254822E0,-8.899293823E0,3.872447205E-1,9.600292371E0
1.053066933E1,3.739523621E0,-8.867709503E0,4.893324280E-1,9.636376651E0
1.054070633E1,3.987557831E0,-9.021140442E0,7.708969116E-1,9.893223659E0
1.055074333E1,4.132157135E0,-9.154363403E0,8.927435303E-1,1.008335673E1
1.056078133E1,4.046984253E0,-9.149872742E0,1.055754547E0,1.006046074E1
1.057081833E1,3.950584717E0,-9.081015930E0,9.813592529E-1,9.951634836E0
1.058085533E1,3.912264404E0,-8.994944916E0,7.747888184E-1,9.839468711E0
1.059089233E1,4.055067444E0,-8.028554535E0,1.004261627E0,9.050403378E0
1.060093033E1,3.724554749E0,-7.443720703E0,1.332379303E0,8.429502986E0
1.061096733E1,3.714974670E0,-7.038363647E0,1.371298370E0,8.075893688E0
1.062100433E1,3.837420044E0,-6.755302277E0,1.500779114E0,7.912789609E0
1.063104133E1,3.858675842E0,-7.136858826E0,1.760339355E0,8.301983365E0
1.064107933E1,3.923940125E0,-7.509434052E0,2.150428162E0,8.741467105E0
1.065111633E1,3.994144135E0,-7.847730560E0,2.638712769E0,9.192544120E0
1.066115333E1,4.321812744E0,-7.915389862E0,2.874023438E0,9.465277216E0
1.067119133E1,4.260889435E0,-8.188422089E0,2.744542694E0,9.630054500E0
1.068122833E1,3.721111908E0,-9.272018738E0,1.868264923E0,1.016402573E1
1.069126533E1,3.532803497E0,-9.815837860E0,1.515598297E0,1.054174614E1
1.070130233E1,3.947441254E0,-1.006941055E1,7.535330200E-1,1.084173110E1
1.071134033E1,4.794829102E0,-9.983489227E0,-5.104385376E-1,1.108697392E1
1.072137733E1,5.730982361E0,-9.778265991E0,-1.688339081E0,1.145901974E1
1.073141433E1,6.438860321E0,-9.654024353E0,-1.593586121E0,1.171318168E1
1.074145233E1,6.788832550E0,-9.156009979E0,-6.670129395E-1,1.141777879E1
1.075148933E1,6.650669861E0,-8.660240936E0,3.617976379E-1,1.092529543E1
1.076152633E1,6.123316498E0,-8.791817322E0,9.839039612E-1,1.075914140E1
1.077156333E1,5.550607452E0,-9.142238617E0,7.764353943E-1,1.072346129E1
1.078160133E1,5.197192383E0,-8.683143311E0,9.897418213E-1,1.016795827E1
1.079163833E1,5.013224945E0,-8.053552551E0,1.857936401E0,9.666646819E0
1.080167533E1,4.855453033E0,-8.333769836E0,1.357527008E0,9.740124405E0
1.081171333E1,4.590953064E0,-8.522377625E0,-6.601272583E-2,9.680502471E0
1.082175033E1,5.106331329E0,-8.471333771E0,-5.620811462E-1,9.907272617E0
1.083178733E1,5.575605469E0,-8.317154388E0,-4.414320374E-1,1.002283871E1
1.084182433E1,5.900130615E0,-7.712561646E0,-1.556762695E-2,9.710581381E0
1.085186233E1,5.455854492E0,-8.198600922E0,1.883084106E-1,9.849815499E0
1.086189933E1,4.889132996E0,-8.834478607E0,1.664538574E-1,1.009848209E1
1.087193633E1,4.530029755E0,-9.144483948E0,-6.007008362E-1,1.022270012E1
1.088197333E1,3.908073120E0,-8.600814514E0,-1.346599731E0,9.542556086E0
1.089201133E1,3.214116211E0,-7.795339508E0,-6.795867920E-1,8.459296618E0
1.090204833E1,2.276765442E0,-7.343878326E0,-2.914439392E-1,7.694228312E0
1.091208533E1,5.388793945E-1,-7.101681976E0,-9.424401855E-1,7.184182027E0
1.092212333E1,-7.158114624E-1,-7.384443970E0,-1.090332642E0,7.498748166E0
1.093216033E1,-1.352437592E0,-8.066276093E0,-2.715353394E-1,8.183375152E0
1.094219733E1,-1.235680389E0,-9.718540192E0,1.422042847E0,9.899451265E0
1.095223433E1,-7.812254333E-1,-1.035381912E1,3.042572937E0,1.081984906E1
1.096227233E1,6.563850403E-1,-9.625284119E0,2.507435760E0,9.968157793E0
1.097230933E1,4.357438660E-1,-9.172026672E0,8.315208435E-1,9.219944301E0
1.098234633E1,-2.131567383E-1,-8.786428528E0,-2.960842896E-1,8.793999544E0
1.099238433E1,-3.969744873E-1,-8.609795837E0,-6.342311096E-1,8.642246363E0
1.100242133E1,6.137237549E-3,-8.434210968E0,-8.484356689E-1,8.476779778E0
1.101245833E1,6.605763245E-1,-8.054750061E0,-9.369017029E-1,8.135916938E0
1.102249533E1,1.576222229E0,-7.588020630E0,-8.271798706E-1,7.794020794E0
1.103253333E1,2.574047241E0,-7.046746216E0,-5.361849976E-1,7.521292826E0
1.104257033E1,3.638932800E0,-7.182813263E0,-2.586621094E-1,8.056149476E0
1.105260733E1,5.110522614E0,-7.461084595E0,-6.436614990E-3,9.043520672E0
1.106264533E1,5.864804077E0,-8.215066681E0,4.848417664E-1,1.010536090E1
1.107268233E1,6.440955963E0,-8.904383240E0,1.472787323E0,1.108796902E1
1.108271933E1,6.663393402E0,-9.596094818E0,2.555635529E0,1.195897656E1
1.109275633E1,7.352410583E0,-9.807305603E0,3.703897705E0,1.280468831E1
1.110279433E1,7.967331848E0,-9.718689880E0,4.069886627E0,1.320966642E1
1.111283133E1,8.278834076E0,-1.023691223E1,4.053720245E0,1.377556219E1
1.112286833E1,8.435558167E0,-1.128054199E1,3.694766693E0,1.456229962E1
1.113290633E1,8.077652435E0,-1.247984802E1,2.487227783E0,1.507253720E1
1.114294333E1,8.351732483E0,-1.303938446E1,8.158035278E-1,1.550620901E1
1.115298033E1,8.751101990E0,-1.422072784E1,-4.547543335E-1,1.670382256E1
1.116301733E1,8.907676392E0,-1.465811829E1,-1.192420349E0,1.719386509E1
1.117305533E1,7.153025208E0,-1.288251068E1,-1.517544250E0,1.481309527E1
1.118309233E1,4.470753021E0,-1.015009277E1,-1.682950287E0,1.121803626E1
1.119312933E1,3.138373718E0,-8.518934784E0,-1.287472687E0,9.169472469E0
1.120316733E1,2.462379456E0,-7.604187012E0,-7.378157043E-1,8.026913772E0
1.121320433E1,2.077080688E0,-7.444618835E0,-7.604187012E-2,7.729320550E0
1.122324133E1,1.528321838E0,-7.748187561E0,4.478686523E-1,7.910168421E0
1.123327833E1,1.227896576E0,-8.124505005E0,8.424481201E-1,8.259844454E0
1.124331633E1,1.083297272E0,-8.462053070E0,1.043180695E0,8.594655380E0
1.125335333E1,1.036594391E0,-8.704399109E0,1.022224274E0,8.825306467E0
1.126339033E1,8.863069153E-1,-9.018895111E0,1.031654663E0,9.120872783E0
1.127342833E1,6.849755859E-1,-9.198222198E0,1.180744629E0,9.298959138E0
1.128346533E1,4.177812195E-1,-9.405092010E0,1.518143005E0,9.535987367E0
1.129350233E1,1.227447510E-1,-9.660760345E0,1.958676910E0,9.858081556E0
1.130353933E1,-1.017883301E-1,-9.872869263E0,2.226320343E0,1.012128503E1
1.131357733E1,-2.429447937E-1,-1.006536896E1,2.342329102E0,1.033717466E1
1.132361433E1,-3.915856934E-1,-1.032657578E1,2.386487274E0,1.060598077E1
1.133365133E1,-2.537223816E-1,-1.041189835E1,2.124831390E0,1.062953012E1
1.134368933E1,3.559597778E-1,-9.943672028E0,1.983974304E0,1.014590926E1
1.135372633E1,9.232800293E-1,-9.402098236E0,2.025288391E0,9.661971348E0
1.136376333E1,1.000669098E0,-9.158105621E0,2.337988129E0,9.504652845E0
1.137380033E1,7.319778442E-1,-9.228010254E0,2.657274170E0,9.630839570E0
1.138383833E1,8.083190918E-1,-9.319769440E0,3.207679596E0,9.889423166E0
1.139387533E1,1.528920593E0,-8.957822113E0,3.220253448E0,9.641068793E0
1.140391233E1,2.391427002E0,-8.551716614E0,2.915636902E0,9.346214137E0
1.141394933E1,2.780917053E0,-8.876990204E0,3.013982391E0,9.778473531E0
1.142398733E1,3.051554260E0,-9.029822388E0,3.316652985E0,1.009206930E1
1.143402433E1,3.177592163E0,-9.207203522E0,3.218906250E0,1.025821847E1
1.144406133E1,3.315305786E0,-9.203311615E0,2.961741028E0,1.022076842E1
1.145409933E1,3.291804657E0,-8.655899963E0,2.981050873E0,9.728681636E0
1.146413633E1,2.672991486E0,-8.676706696E0,3.052751770E0,9.578591542E0
1.147417333E1,1.624721375E0,-9.585017853E0,3.159330139E0,1.022221374E1
1.148421133E1,6.494993591E-1,-1.075962524E1,3.383414154E0,1.129773766E1
1.149424833E1,7.806266785E-1,-1.096110626E1,3.341800690E0,1.148576773E1
1.150428533E1,1.420096893E0,-1.023257126E1,2.991678772E0,1.075510723E1
1.151432233E1,1.819017334E0,-9.608518982E0,3.008443909E0,1.023148063E1
1.152436033E1,1.776356049E0,-9.031169586E0,3.092718658E0,9.709911102E0
1.153439733E1,1.505868530E0,-9.013057251E0,3.594175873E0,9.819416543E0
1.154443433E1,1.104852448E0,-8.860674133E0,3.694916382E0,9.663573464E0
1.155447133E1,2.930905151E-1,-9.299860840E0,3.838018799E0,1.006497402E1
1.156450933E1,-2.712359619E-1,-1.019889130E1,3.457360382E0,1.077238569E1
1.157454633E1,-5.728587341E-1,-1.115300720E1,2.598147125E0,1.146595418E1
1.158458333E1,-3.811074829E-1,-1.175116333E1,1.860481110E0,1.190363274E1
1.159462133E1,-1.203497314E-1,-1.124790985E1,1.371897125E0,1.133190460E1
1.160465833E1,6.146218872E-1,-1.039962387E1,1.575922852E0,1.053629297E1
1.161469533E1,1.125958557E0,-9.382788391E0,1.980681152E0,9.655443982E0
1.162473233E1,8.626560974E-1,-8.127349091E0,2.768343201E0,8.629119472E0
1.163477033E1,7.574249268E-2,-7.513026581E0,2.807711334E0,8.020882013E0
1.164480733E1,-9.234297180E-1,-8.020471344E0,2.436782684E0,8.433184029E0
1.165484433E1,-1.688788147E0,-9.084309082E0,1.605561218E0,9.378406247E0
1.166488233E1,-1.795965271E0,-9.489366760E0,4.376898193E-1,9.667737333E0
1.167491933E1,-2.054477692E0,-9.960287476E0,-4.168830872E-1,1.017850660E1
1.168495633E1,-1.373992767E0,-1.032822235E1,-1.124012604E0,1.047966781E1
1.169499333E1,-1.754351807E-1,-9.697434082E0,-7.222480774E-1,9.725875157E0
1.170503133E1,6.756948853E-1,-8.913963318E0,1.143023071E0,9.012314206E0
1.171506833E1,7.518864441E-1,-8.543334045E0,2.494412842E0,8.931740327E0
1.172510533E1,6.685098267E-1,-8.962612152E0,3.435655518E0,9.621800809E0
1.173514333E1,1.237776031E0,-9.571545868E0,3.384312286E0,1.022742145E1
1.174518033E1,1.474733276E0,-1.025247986E1,2.195334778E0,1.058809125E1
1.175521733E1,1.872007141E0,-1.067145859E1,1.712438965E0,1.096890543E1
1.176525433E1,2.409988403E0,-9.968071289E0,1.149010620E0,1.031943384E1
1.177529233E1,3.117417297E0,-9.683363342E0,1.828447723E0,1.033581334E1
1.178532933E1,3.560495911E0,-9.313033447E0,2.181713104E0,1.020635073E1
1.179536633E1,3.360062714E0,-9.295220490E0,2.150278473E0,1.011507997E1
1.180540433E1,3.179238739E0,-9.192084961E0,2.440973969E0,1.002797780E1
1.181544133E1,2.642454987E0,-9.278305664E0,1.921554108E0,9.836762401E0
1.182547833E1,2.449805603E0,-9.565408630E0,1.779798889E0,1.003325839E1
1.183551533E1,2.502196655E0,-9.840985565E0,1.334325256E0,1.024140659E1
1.184555333E1,2.792592773E0,-9.927954712E0,5.596861267E-1,1.032841264E1
1.185559033E1,2.596051483E0,-1.047940796E1,-2.080673218E-2,1.079619875E1
1.186562733E1,2.229763184E0,-1.185684357E1,-2.457888794E-1,1.206718672E1
1.187566533E1,2.126477966E0,-1.232611771E1,1.378633118E-1,1.250896049E1
1.188570233E1,2.091301117E0,-1.102547241E1,7.918533325E-2,1.122233722E1
1.189573933E1,1.833387451E0,-9.653874664E0,1.886077881E-1,9.828233742E0
1.190577733E1,1.314117279E0,-9.767787781E0,4.978646851E-1,9.868356074E0
1.191581433E1,8.869056702E-1,-9.622290344E0,1.011296997E0,9.715852755E0
1.192585133E1,1.217568054E0,-9.444160767E0,1.656305695E0,9.665298397E0
1.193588833E1,1.889969788E0,-1.010129425E1,1.924248505E0,1.045518358E1
1.194592633E1,2.363135834E0,-1.042791504E1,1.744771729E0,1.083374595E1
1.195596333E1,2.568059692E0,-1.078133011E1,2.408491516E0,1.134164190E1
1.196600033E1,2.821482697E0,-1.080902252E1,2.952011261E0,1.155465720E1
1.197603833E1,2.496059418E0,-1.073073532E1,3.047362976E0,1.143089735E1
1.198607533E1,2.049537964E0,-1.108310257E1,2.960543518E0,1.165335086E1
1.199611233E1,2.096091156E0,-1.166763702E1,2.527494049E0,1.212087365E1
1.200614933E1,1.682351532E0,-1.189336761E1,2.394720154E0,1.224815025E1
1.201618733E1,1.184935913E0,-1.198946777E1,2.266586609E0,1.225923429E1
1.202622433E1,8.006849670E-1,-1.184831131E1,1.876797180E0,1.202272619E1
1.203626133E1,-1.362167358E-2,-1.194770462E1,1.346450043E0,1.202334225E1
1.204629933E1,-5.171745300E-1,-1.222223373E1,1.303938446E0,1.230246814E1
1.205633633E1,1.483415222E-1,-1.280736694E1,2.570604401E0,1.306363886E1
1.206637333E1,7.527845764E-1,-1.267100052E1,2.332299957E0,1.290583441E1
1.207641033E1,1.456471252E-1,-1.143322449E1,1.053060150E0,1.148254201E1
1.208644833E1,-4.767585754E-1,-1.152797745E1,6.851252747E-1,1.155815554E1
1.209648533E1,-1.062191162E0,-1.122351059E1,3.360511780E-1,1.127866882E1
1.210652233E1,-1.893562317E0,-1.104418350E1,3.676354980E-1,1.121136581E1
1.211656033E1,-2.554887085E0,-1.082952988E1,6.480024719E-1,1.114567506E1
1.212659733E1,-2.776127014E0,-1.024544449E1,6.372248840E-1,1.063400534E1
1.213663433E1,-3.168012085E0,-9.758357391E0,6.608757019E-1,1.028098226E1
1.214667133E1,-3.543581085E0,-1.026699966E1,9.389973450E-1,1.090183310E1
1.215670933E1,-3.568429413E0,-1.055724609E1,1.040935364E0,1.119252786E1
1.216674633E1,-3.523223419E0,-1.056233551E1,1.230590973E0,1.120224928E1
1.217678333E1,-3.068020020E0,-9.941576385E0,2.075284424E0,1.060917025E1
1.218682133E1,-2.125130768E0,-9.149124298E0,1.827848969E0,9.568891684E0
1.219685833E1,-2.045496368E0,-8.251740417E0,1.896855469E0,8.710530178E0
1.220689533E1,-2.165397034E0,-7.416327667E0,2.170336761E0,8.025037199E0
1.221693233E1,-2.169288940E0,-7.119794312E0,2.074985046E0,7.726761837E0
1.222697033E1,-2.406844940E0,-7.645800476E0,1.758393402E0,8.206285082E0
1.223700733E1,-2.424657898E0,-8.221652985E0,1.377285919E0,8.681673815E0
1.224704433E1,-2.237097931E0,-8.321944427E0,6.658154297E-1,8.643071005E0
1.225708233E1,-2.049687653E0,-8.701854401E0,8.831634521E-3,8.939998181E0
1.226711933E1,-2.129771118E0,-9.163195038E0,-1.197509766E-1,9.408209639E0
1.227715633E1,-1.850152588E0,-9.340725861E0,-3.454815674E-1,9.528461666E0
1.228719333E1,-1.610500946E0,-9.288783875E0,-3.216810608E-1,9.432852054E0
1.229723175E1,-1.052910461E0,-8.744515686E0,-8.690927124E-1,8.850451806E0
1.230726875E1,-8.330177307E-1,-8.488098907E0,-1.346450043E0,8.634504579E0
1.231730575E1,-7.551795959E-1,-7.869884491E0,-1.691332855E0,8.084923311E0
1.232734375E1,-6.135740662E-1,-7.522456970E0,-2.369422760E0,7.910625526E0
1.233738075E1,-6.722520447E-1,-7.452851715E0,-2.919379120E0,8.032415324E0
1.234741775E1,-1.186582489E0,-7.402406616E0,-3.300037537E0,8.191083534E0
1.235745475E1,-1.509461060E0,-7.814499664E0,-3.169658661E0,8.566890551E0
1.236749275E1,-1.891017609E0,-7.028035126E0,-2.008223877E0,7.549979368E0
1.237752975E1,-1.962868195E0,-6.375691681E0,-1.698218536E0,6.883766568E0
1.238756675E1,-1.001716919E0,-5.883215790E0,-2.609373779E0,6.513408964E0
1.239760475E1,-1.115330658E0,-5.983656921E0,-2.124232635E0,6.446741574E0
1.240764175E1,-3.619922333E0,-2.796634369E0,7.888595581E-2,4.575065517E0
1.241767875E1,-8.728498993E0,2.620301056E0,2.916684723E0,9.568684448E0
1.242771575E1,-8.662935333E0,-1.146600632E1,5.220394135E0,1.528948215E1
1.243775375E1,-1.212179260E0,-1.414498535E1,4.688250732E-1,1.420456920E1
1.244779075E1,4.064497833E0,-1.292083099E1,-3.258573761E0,1.393148661E1
1.245782775E1,7.310797119E0,-1.360655502E1,-3.535797272E0,1.584575516E1
1.246786575E1,4.777764587E0,-1.243284576E1,-1.923949127E0,1.345749860E1
1.247790275E1,1.674118652E0,-1.236353989E1,1.172960815E0,1.253138575E1
1.248793975E1,1.257684631E0,-1.180999100E1,6.141877899E0,1.337087589E1
1.249797775E1,1.978136444E0,-1.061233154E1,2.455643463E0,1.107089831E1
1.250801475E1,2.255060577E0,-1.016670822E1,-1.847907257E0,1.057648408E1
1.251805175E1,1.967807922E0,-9.760453033E0,-4.379442902E0,1.087741842E1
1.252808875E1,1.517394562E0,-8.892557831E0,-4.859045563E0,1.024648207E1
1.253812675E1,1.171763306E0,-7.804320831E0,-3.201542358E0,8.516473822E0
1.254816375E1,1.543290710E0,-7.775281219E0,-9.635462952E-1,7.985309369E0
1.255820075E1,1.387614441E0,-7.106022949E0,3.736230469E-1,7.249871045E0
1.256823775E1,1.360520782E0,-6.186185760E0,1.238374786E0,6.453950974E0
1.257827575E1,1.122964783E0,-6.264023895E0,2.173779602E0,6.724906172E0
1.258831275E1,4.372407532E-1,-7.128625946E0,2.354902954E0,7.520243033E0
1.259834975E1,-4.507127380E-1,-8.296197968E0,1.654958496E0,8.471654520E0
1.260838775E1,-1.332229614E0,-9.937085724E0,6.144721985E-1,1.004480386E1
1.261842475E1,-1.537003784E0,-1.131586853E1,-2.881507874E-1,1.142340983E1
1.262846175E1,-8.279283142E-1,-1.196222443E1,-5.441184998E-1,1.200318056E1
1.263849975E1,2.058219910E-1,-1.280886383E1,-1.514849854E-1,1.281141300E1
1.264853675E1,1.607507172E0,-1.311243256E1,5.830375671E-1,1.322346020E1
1.265857375E1,2.778072968E0,-1.303669006E1,1.895657959E0,1.346352466E1
1.266861075E1,3.206482086E0,-1.360715378E1,2.125579834E0,1.414051806E1
1.267864875E1,3.337908783E0,-1.329864532E1,1.347797241E0,1.377723339E1
1.268868575E1,2.763852539E0,-1.323263260E1,-1.004411316E-1,1.351856260E1
1.269872275E1,2.523602142E0,-1.250978577E1,-2.340981903E0,1.297472558E1
1.270876075E1,1.824555817E0,-1.089778793E1,-2.877466278E0,1.141799448E1
1.271879775E1,1.871109009E-1,-9.677226105E0,-2.108814697E0,9.906099888E0
1.272883475E1,-1.168320465E0,-8.809330902E0,-1.972897339E0,9.102835139E0
1.273887175E1,-1.675166473E0,-7.216044159E0,-1.132844238E0,7.494051780E0
1.274890975E1,-2.005080414E0,-6.501729584E0,3.903881836E-1,6.815074319E0
1.275894675E1,-2.296224976E0,-6.851252747E0,2.252964935E0,7.568894525E0
1.276898375E1,-1.049317932E0,-7.570507050E0,2.989283752E0,8.206671826E0
1.277902175E1,2.733316040E-1,-7.305408325E0,3.225043488E0,7.990282001E0
1.278905875E1,-1.214574280E0,-1.123039627E1,4.377047882E0,1.211427007E1
1.279909575E1,-9.620494080E-1,-1.058898010E1,4.093836823E0,1.139348667E1
1.280913275E1,-1.769620056E0,-1.121976837E1,3.483705597E0,1.188069704E1
1.281917075E1,-1.813927917E0,-1.125284958E1,2.758763123E0,1.172722184E1
1.282920775E1,-1.819017334E0,-1.032118698E1,1.565145264E0,1.059648076E1
1.283924475E1,-2.514022064E0,-9.194629669E0,-1.942959595E-1,9.534111003E0
1.284928275E1,-3.227139130E0,-8.616831207E0,-9.654922485E-1,9.251831294E0
1.285931975E1,-3.821103973E0,-8.912316742E0,-3.668870544E-1,9.703856522E0
1.286935675E1,-3.961511993E0,-9.529034271E0,5.691165161E-1,1.033537445E1
1.287939375E1,-3.721111908E0,-9.645641785E0,1.696871338E0,1.047685313E1
1.288943175E1,-3.029250641E0,-1.003483246E1,1.755399628E0,1.062805955E1
1.289946875E1,-1.924098816E0,-1.058763290E1,7.976911926E-1,1.079057172E1
1.290950575E1,-1.172511749E0,-1.086186264E1,-4.926255798E-1,1.093606528E1
1.291954375E1,-1.025517426E0,-1.043405228E1,-7.334747314E-1,1.050995329E1
1.292958075E1,-1.974244537E0,-9.528285828E0,6.239025879E-1,9.750647504E0
1.293961775E1,-2.889740753E0,-8.968450012E0,2.018702087E0,9.636329974E0
1.294965475E1,-3.199297028E0,-8.735234985E0,2.512076111E0,9.635889067E0
1.295969275E1,-2.626438293E0,-8.532855835E0,2.492317200E0,9.269274612E0
1.296972975E1,-2.163151703E0,-9.211245117E0,2.553539886E0,9.800348354E0
1.297976675E1,-1.634301453E0,-9.439969482E0,2.402054901E0,9.876934383E0
1.298980475E1,-1.884880371E0,-9.682764587E0,2.330054626E0,1.013596856E1
1.299984175E1,-2.852617950E0,-1.012898666E1,2.319127350E0,1.077553487E1
1.300987875E1,-3.307372284E0,-1.020113663E1,2.700384521E0,1.105866070E1
1.301991575E1,-3.852538605E0,-1.011207184E1,2.318079529E0,1.106659583E1
1.302995375E1,-4.160597992E0,-9.598938904E0,2.331252136E0,1.071843926E1
1.303999075E1,-4.521198120E0,-9.770033112E0,2.340532837E0,1.101693575E1
1.305002775E1,-4.027524719E0,-9.924212494E0,1.428479462E0,1.080516092E1
1.306006575E1,-3.083437958E0,-9.141939240E0,5.060975647E-1,9.661199586E0
1.307010275E1,-2.683769073E0,-8.517737274E0,2.333647156E-1,8.933584040E0
1.308013975E1,-2.041903839E0,-8.501271515E0,-2.113604736E-1,8.745608150E0
1.309017675E1,-2.246977386E0,-9.632020111E0,5.366340637E-1,9.905185254E0
1.310021475E1,-1.334624634E0,-9.709259491E0,9.476792908E-1,9.846270300E0
1.311025175E1,-1.362317047E0,-1.104223755E1,1.868414612E0,1.128175035E1
1.312028875E1,-3.939807129E-1,-1.116573074E1,1.383423157E0,1.125800264E1
1.313032675E1,1.043929138E0,-1.001956421E1,1.439556427E0,1.017613766E1
1.314036375E1,1.212778015E0,-1.026984375E1,1.018931122E0,1.039128201E1
1.315040075E1,1.979483643E0,-9.384884033E0,1.115480347E0,9.656018859E0
1.316043775E1,2.170336761E0,-9.121132507E0,6.668632507E-1,9.399474798E0
1.317047575E1,2.118694153E0,-8.620573425E0,4.068539429E-1,8.886432424E0
1.318051275E1,1.613345032E0,-8.818312225E0,1.463955688E-1,8.965876664E0
1.319054975E1,1.574875031E0,-8.934770050E0,-2.118095398E-1,9.074977162E0
1.320058775E1,1.524878998E0,-9.272018738E0,-2.589614868E-2,9.396608859E0
1.321062475E1,1.307980042E0,-1.009380981E1,6.810836792E-1,1.020096482E1
1.322066175E1,1.894011383E0,-9.811047821E0,1.405876465E0,1.009061084E1
1.323069875E1,2.029629364E0,-1.041938278E1,2.113604736E0,1.082359727E1
1.324073675E1,1.997745667E0,-1.124192230E1,2.728526001E0,1.173953402E1
1.325077375E1,1.679208069E0,-1.129491211E1,2.687660980E0,1.173108268E1
1.326081075E1,1.712588654E0,-1.141062149E1,2.064357147E0,1.172163867E1
1.327084875E1,1.592238922E0,-1.074899734E1,1.903591461E0,1.103176455E1
1.328088575E1,1.071322174E0,-1.116094070E1,1.093176727E0,1.126540563E1
1.329092275E1,2.011816406E-1,-1.188288940E1,-8.936416626E-2,1.188492830E1
1.330096050E1,-1.385518799E0,-1.137095398E1,-5.891748047E-1,1.147019545E1
1.331099850E1,-2.642005920E0,-1.153426437E1,3.359014893E-1,1.183774809E1
1.332103550E1,-2.761008453E0,-1.085737198E1,1.337768097E0,1.128252265E1
1.333107250E1,-3.200644226E0,-1.062011536E1,2.109712830E0,1.129078659E1
1.334111050E1,-4.489164734E0,-1.151375702E1,2.435734863E0,1.259571376E1
1.335114750E1,-4.588108978E0,-1.276590317E1,2.042502594E0,1.371826682E1
1.336118450E1,-4.575235748E0,-1.280512161E1,1.454824677E0,1.367554154E1
1.337122250E1,-3.892505493E0,-1.138876694E1,1.795216827E0,1.216874746E1
1.338125950E1,-2.175276489E0,-9.188342743E0,1.663341064E0,9.587709511E0
1.339129650E1,-1.709744568E0,-9.591903534E0,6.724017334E-1,9.766266635E0
1.340133350E1,-2.021546173E0,-9.667346649E0,4.023632813E-1,9.884641439E0
1.341137150E1,-1.733994141E0,-9.634115753E0,1.038091278E0,9.843807979E0
1.342140850E1,-1.340013428E0,-9.723180542E0,1.803749084E0,9.979448211E0
1.343144550E1,-1.997146912E0,-1.022837997E1,9.626481628E-1,1.046589911E1
1.344148350E1,-1.800156555E0,-1.059601547E1,1.004561005E0,1.079468621E1
1.345152050E1,-1.296304321E0,-1.100002533E1,2.610571289E-1,1.107921987E1
1.346155750E1,-8.857081604E-1,-1.008557693E1,-9.301657104E-1,1.016703247E1
1.347159450E1,-1.727407837E-1,-8.890312500E0,-1.166973267E0,8.968239645E0
1.348163250E1,2.243833923E-1,-8.592431946E0,-9.791139221E-1,8.650947851E0
1.349166950E1,3.022215271E-1,-8.781788177E0,-3.164419556E-1,8.792683149E0
1.350170650E1,1.796264648E-1,-9.340276794E0,-1.142124939E-1,9.342702005E0
1.351174450E1,1.278341675E-1,-9.507778473E0,-5.486091614E-1,9.524450907E0
1.352178150E1,7.020401001E-2,-9.670041046E0,-9.427395630E-1,9.716140197E0
1.353181850E1,6.885681152E-2,-9.261839905E0,-1.471889191E0,9.378319544E0
1.354185550E1,6.903643799E-1,-8.500672760E0,-1.720222778E0,8.700414172E0
1.355189350E1,1.995200958E0,-7.301067352E0,-1.278491364E0,7.675998405E0
1.356193050E1,2.789299622E0,-7.110363922E0,-9.822573853E-1,7.700798469E0
1.357196750E1,3.066074066E0,-8.291707306E0,-5.230123901E-1,8.855888560E0
1.358200550E1,2.887345734E0,-8.929530945E0,3.742218018E-1,9.392195177E0
1.359204250E1,2.051483917E0,-9.199120331E0,1.164727936E0,9.496788525E0
1.360207950E1,1.148561554E0,-9.457483063E0,9.749226379E-1,9.576724580E0
1.361211650E1,8.313711548E-1,-8.958271179E0,4.073030090E-1,9.005981138E0
1.362215450E1,1.972897339E-1,-9.564211121E0,-7.854167175E-1,9.598434092E0
1.363219150E1,-5.987548828E-4,-9.480086060E0,-7.086264038E-1,9.506533723E0
1.364222850E1,-3.936813354E-2,-9.128616943E0,5.763015747E-1,9.146874912E0
1.365226650E1,1.059796143E0,-8.330177307E0,-6.611750793E-1,8.423311363E0
1.366230350E1,2.401605835E0,-8.357720032E0,-1.381926270E0,8.805050535E0
1.367234050E1,1.125509491E0,-9.023236084E0,5.159770203E-1,9.107787510E0
1.368237750E1,9.535171509E-1,-9.573192444E0,1.489851837E0,9.735238416E0
1.369241550E1,2.285148010E0,-9.937834167E0,1.867815857E0,1.036683102E1
1.370245250E1,1.719324646E0,-6.647526398E0,2.313738556E0,7.245624235E0
1.371248950E1,1.058898010E0,-8.220006409E0,1.324146423E0,8.393040814E0
1.372252750E1,1.136885834E0,-9.462722168E0,4.224215698E-1,9.540128941E0
1.373256450E1,8.089178467E-1,-9.094038849E0,2.219883728E-1,9.132643073E0
1.374260150E1,6.433621216E-1,-9.110354919E0,-1.899549866E-1,9.135018581E0
1.375263850E1,1.018332367E0,-8.998836823E0,-1.642085266E-1,9.057760728E0
1.376267650E1,1.086590424E0,-9.027277679E0,-2.715353394E-1,9.096491219E0
1.377271350E1,7.809260559E-1,-8.796307983E0,-7.453001404E-1,8.862299473E0
1.378275050E1,5.749543762E-1,-8.326435089E0,-8.690927124E-1,8.391389395E0
1.379278850E1,3.499722290E-1,-8.580307159E0,-5.860313416E-1,8.607414492E0
1.380282550E1,5.453160095E-1,-9.043144684E0,-2.409988403E-1,9.062776383E0
1.381286250E1,9.156459045E-1,-9.048683167E0,-3.065625000E-1,9.100057969E0
1.382290050E1,1.367406464E0,-8.809929657E0,-8.189469910E-1,8.952951199E0
1.383293750E1,1.741927643E0,-8.869206390E0,-1.436562653E0,9.152095179E0
1.384297450E1,1.844464417E0,-9.119036865E0,-1.962119751E0,9.508354024E0
1.385301150E1,1.923949127E0,-9.395511932E0,-1.209185486E0,9.666403377E0
1.386304950E1,1.937121735E0,-9.642049255E0,1.286724243E0,9.918528809E0
1.387308650E1,1.717229004E0,-9.732910309E0,2.473905487E0,1.018816111E1
1.388312350E1,3.938310242E-1,-1.095841187E1,1.685794373E0,1.109431369E1
1.389316150E1,-9.527687073E-1,-1.133008896E1,9.524693298E-1,1.140990280E1
1.390319850E1,-1.673370209E0,-1.048943710E1,9.084608459E-1,1.066085173E1
1.391323550E1,-1.461710358E0,-1.027777725E1,-7.484436035E-3,1.038120217E1
1.392327250E1,-2.963836670E-1,-1.057625656E1,-1.008752289E0,1.062838780E1
1.393331050E1,5.821394348E-1,-1.100227066E1,-1.089135132E0,1.107136222E1
1.394334750E1,2.167492676E-1,-1.193932205E1,-3.918850708E-1,1.194771799E1
1.395338450E1,-4.631369019E-1,-1.188917633E1,3.167413330E-1,1.190240878E1
1.396342250E1,-8.262817383E-1,-1.105870331E1,6.900650024E-1,1.111097881E1
1.397345950E1,-9.629475403E-1,-1.083282303E1,1.559606781E0,1.098679644E1
1.398349650E1,-1.344204712E-1,-1.086261108E1,2.861000519E0,1.123386454E1
1.399353350E1,1.024319916E0,-1.036878799E1,3.952979736E0,1.114392411E1
1.400357150E1,1.158141632E0,-1.006956024E1,4.095633087E0,1.093213364E1
1.401360850E1,5.140310669E-1,-9.934391327E0,3.689228210E0,1.060974852E1
1.402364550E1,5.328918457E-2,-9.488169250E0,3.201242981E0,1.001379808E1
1.403368350E1,6.288423157E-1,-9.130413208E0,2.825973358E0,9.578413931E0
1.404372050E1,1.013093262E0,-9.319919128E0,2.432292023E0,9.685210117E0
1.405375750E1,1.578168182E0,-9.466763763E0,1.532064056E0,9.718922329E0
1.406379450E1,2.710114288E0,-9.157955933E0,3.923341370E-1,9.558598349E0
1.407383250E1,2.846630402E0,-9.462871857E0,1.179547119E-1,9.882467391E0
1.408386950E1,2.306104431E0,-8.665330353E0,7.334747314E-2,8.967243034E0
1.409390650E1,7.357200623E-1,-8.469387817E0,-1.248403931E-1,8.502199664E0
1.410394450E1,-1.005459137E0,-9.114396515E0,5.037025452E-1,9.183511755E0
1.411398150E1,-2.036964111E0,-9.858050079E0,4.177812195E-1,1.007496478E1
1.412401850E1,-2.784659271E0,-1.096499817E1,5.499563599E-1,1.132642768E1
1.413405550E1,-3.110681305E0,-1.181523010E1,9.632469177E-1,1.225576783E1
1.414409350E1,-2.580034790E0,-1.245559845E1,1.863624573E0,1.285580059E1
1.415413050E1,-1.717977448E0,-1.152663025E1,2.848276978E0,1.199697183E1
1.416416750E1,-2.295775909E0,-9.773475952E0,2.290387115E0,1.029744106E1
1.417420550E1,-1.916165314E0,-8.571625214E0,2.111958160E0,9.033538376E0
1.418424250E1,-2.593506775E0,-8.787027283E0,2.535577240E0,9.506170512E0
1.419427950E1,-9.660910034E-1,-9.126820679E0,2.671644287E0,9.558758849E0
1.420431750E1,-1.979932709E0,-1.005683670E1,2.032323761E0,1.044942285E1
1.421435450E1,-2.972069550E0,-1.099433716E1,1.406624908E0,1.147550611E1
1.422439150E1,-3.902684326E0,-1.180460220E1,8.313711548E-1,1.246076868E1
1.423442850E1,-4.049978027E0,-1.067085983E1,9.830058289E-1,1.145582263E1
1.424446650E1,-4.137845306E0,-9.799671478E0,1.200952606E0,1.070502742E1
1.425450350E1,-4.224664764E0,-9.887389069E0,1.190474396E0,1.081783177E1
1.426454050E1,-3.790268097E0,-9.882898407E0,1.475182343E0,1.068709390E1
1.427457850E1,-2.918930054E0,-9.412576447E0,1.907932434E0,1.003777636E1
1.428461550E1,-2.173180847E0,-9.273964691E0,2.223027191E0,9.781154634E0
1.429465250E1,-1.942061462E0,-9.705217896E0,2.639461212E0,1.024351564E1
1.430468825E1,-1.454824677E0,-9.994266815E0,2.875220947E0,1.050089422E1
1.431472625E1,-9.099577332E-1,-9.818532257E0,3.187172241E0,1.036289852E1
1.432476325E1,-8.446934509E-1,-1.016910324E1,2.824027405E0,1.058769562E1
1.433480025E1,-5.096900940E-1,-9.984986115E0,1.902094574E0,1.017731278E1
1.434483825E1,-3.614982605E-1,-9.874665527E0,8.134085083E-1,9.914702904E0
1.435487525E1,-3.233276367E-2,-9.560319214E0,2.534230042E-1,9.563732122E0
1.436491225E1,5.749543762E-1,-8.795858917E0,2.421963501E-1,8.817957003E0
1.437494925E1,1.102457428E0,-8.547525330E0,5.572911072E-1,8.636328793E0
1.438498725E1,2.072440338E0,-8.336913300E0,1.338067474E0,8.694225491E0
1.439502425E1,2.280657349E0,-8.496032410E0,2.897374878E0,9.261681588E0
1.440506125E1,5.553451538E-1,-1.006402176E1,3.737427979E0,1.074994466E1
1.441509925E1,-8.068222046E-1,-1.087443649E1,3.647465057E0,1.149818822E1
1.442513625E1,-1.271156616E0,-1.024978546E1,2.846181335E0,1.071329498E1
1.443517325E1,-1.255289612E0,-9.221573639E0,2.115700378E0,9.544074627E0
1.444521025E1,-8.066725159E-1,-8.441396027E0,1.806293793E0,8.670097156E0
1.445524825E1,-3.207829285E-1,-8.224347382E0,1.736987915E0,8.411891497E0
1.446528525E1,-3.263214111E-2,-8.527017975E0,1.935475159E0,8.743978756E0
1.447532225E1,-5.718109131E-2,-9.120384064E0,2.167792053E0,9.374646528E0
1.448536025E1,-1.456471252E-1,-9.572593689E0,2.465672607E0,9.886116752E0
1.449539725E1,-1.514849854E-1,-9.873617706E0,2.697241058E0,1.023652205E1
1.450543425E1,-2.624043274E-1,-1.013482452E1,2.432292023E0,1.042590853E1
1.451547225E1,-6.406677246E-2,-9.576934662E0,1.918260956E0,9.767369511E0
1.452550925E1,-1.061293030E-1,-9.531429291E0,1.357377319E0,9.628181601E0
1.453554625E1,-3.204835510E-1,-9.463620300E0,9.229806519E-1,9.513922019E0
1.454558325E1,-2.552192688E-1,-9.693542175E0,1.544488220E0,9.819131359E0
1.455562125E1,-5.132826233E-1,-1.007704468E1,2.260599060E0,1.034024161E1
1.456565825E1,-3.811074829E-1,-1.003797592E1,2.511028290E0,1.035429701E1
1.457569525E1,4.290078735E-1,-9.580676880E0,2.641407166E0,9.947384030E0
1.458573325E1,9.416917419E-1,-9.230704651E0,2.248324585E0,9.547128109E0
1.459577025E1,8.479866028E-1,-9.070088654E0,1.666783905E0,9.260872424E0
1.460580725E1,6.532415771E-1,-8.838370514E0,1.459315338E0,8.981821595E0
1.461584425E1,-1.109193420E-1,-9.582772522E0,1.419049072E0,9.687906512E0
1.462588225E1,-7.963439941E-1,-9.722132721E0,1.826052704E0,9.924137085E0
1.463591925E1,-1.177301788E0,-9.835147705E0,2.430645447E0,1.019922581E1
1.464595625E1,-1.778451691E0,-1.039618103E1,2.490670624E0,1.083729259E1
1.465599425E1,-1.085692291E0,-1.002525238E1,2.572999420E0,1.040695628E1
1.466603125E1,-2.960842896E-1,-9.707612915E0,1.860032043E0,9.888636590E0
1.467606825E1,-5.164260864E-2,-9.327104187E0,7.804769897E-1,9.359844219E0
1.468610625E1,-5.313949585E-1,-9.587263184E0,1.069825287E0,9.661393383E0
1.469614325E1,-1.364712067E0,-1.140732834E1,1.457369385E0,1.158073851E1
1.470618025E1,-1.237776031E0,-1.140014328E1,1.735491028E0,1.159772760E1
1.471621725E1,-2.486329651E-1,-1.022373962E1,2.308349762E0,1.048404258E1
1.472625525E1,1.393601990E-1,-1.033870056E1,2.139051819E0,1.055858387E1
1.473629225E1,5.167254639E-1,-1.038854691E1,2.581980743E0,1.071706754E1
1.474632925E1,1.101409607E0,-1.069825287E1,2.558030548E0,1.105482871E1
1.475636725E1,1.499880981E0,-1.031490005E1,2.679877167E0,1.076236720E1
1.476640425E1,1.630409546E0,-1.018047958E1,2.141147461E0,1.053019052E1
1.477644125E1,1.601369934E0,-1.027598099E1,8.907975769E-1,1.043808849E1
1.478647825E1,1.182989960E0,-1.025143204E1,-7.882608032E-1,1.034952555E1
1.479651625E1,2.285746765E-1,-1.003453308E1,-1.632205811E0,1.016898207E1
1.480655325E1,-1.125210114E0,-1.014485367E1,-1.167272644E0,1.027359135E1
1.481659025E1,-1.548978882E0,-1.018047958E1,-5.345384216E-1,1.031150966E1
1.482662825E1,-1.495540009E0,-9.848170624E0,4.695735168E-1,9.972141387E0
1.483666525E1,-1.193168793E0,-1.007749374E1,1.622026978E0,1.027669711E1
1.484670225E1,-2.002835083E-1,-9.788893890E0,1.899699554E0,9.973535756E0
1.485674025E1,5.908213806E-1,-9.842632141E0,1.382375336E0,9.956778542E0
1.486677725E1,5.167254639E-1,-9.763297119E0,6.825805664E-1,9.800759770E0
1.487681425E1,6.541397095E-2,-9.706415405E0,1.082249451E-1,9.707239136E0
1.488685125E1,1.535806274E-1,-1.091410400E1,1.064286804E-1,1.091570338E1
1.489688925E1,-1.405577087E-1,-1.152198990E1,1.154249725E0,1.158051381E1
1.490692625E1,2.833607483E-1,-1.069001999E1,1.759141846E0,1.083749974E1
1.491696325E1,9.008267212E-1,-9.881401520E0,1.867666168E0,1.009662130E1
1.492700125E1,1.053359528E0,-9.420659637E0,1.203796692E0,9.555496888E0
1.493703825E1,1.159788208E0,-9.111103363E0,3.118016052E-1,9.189914767E0
1.494707525E1,1.343905334E0,-8.852890320E0,-2.487826538E-1,8.957769888E0
1.495711225E1,1.254690857E0,-8.845106506E0,-7.165599060E-1,8.962344356E0
1.496715025E1,6.659651184E-1,-8.957522736E0,-6.985972595E-1,9.009370745E0
1.497718725E1,-4.490661621E-3,-9.195228424E0,-7.285350037E-1,9.224045164E0
1.498722425E1,-7.818241882E-1,-9.596094818E0,-9.610015869E-1,9.675732989E0
1.499726225E1,-1.867366791E0,-1.052027298E1,-8.238867188E-1,1.071643558E1
1.500729925E1,-2.577789459E0,-1.167018173E1,-2.251318359E-1,1.195361136E1
1.501733625E1,-2.700534210E0,-1.196102692E1,2.622546387E-1,1.226490226E1
1.502737425E1,-2.482886810E0,-1.118758530E1,8.080197144E-1,1.148824127E1
1.503741125E1,3.860472107E-1,-7.947872314E0,2.011517029E0,8.207551860E0
1.504744825E1,2.326462097E0,-6.587052155E0,3.026107178E0,7.613081283E0
1.505748525E1,3.406915283E-1,-8.610544281E0,2.049537964E0,8.857660492E0
1.506752325E1,-1.640438690E0,-9.999206543E0,7.152127075E-1,1.015808544E1
1.507756025E1,-2.787952423E0,-1.062161224E1,6.102809143E-1,1.099835297E1
1.508759725E1,-2.546354828E0,-1.072025711E1,7.502398682E-1,1.104403438E1
1.509763525E1,-2.506687317E0,-1.138712036E1,1.182540894E-1,1.166035915E1
1.510767225E1,-2.427352295E0,-1.078941330E1,-1.653311920E0,1.118199083E1
1.511770925E1,-2.146536255E-1,-8.948691101E0,-2.766846313E0,9.369129475E0
1.512774725E1,2.458936615E0,-7.030579834E0,-1.830992432E0,7.669938420E0
1.513778425E1,2.299218750E0,-6.978039093E0,-9.475296021E-1,7.407917979E0
1.514782125E1,1.755848694E0,-6.877597961E0,-4.486170959E-1,7.112356547E0
1.515785825E1,1.194815369E0,-7.568561096E0,-4.640350342E-1,7.676329158E0
1.516789625E1,5.583389282E-1,-8.451724548E0,-8.379574585E-1,8.511495926E0
1.517793325E1,9.804611206E-2,-8.643326111E0,-4.236190796E-1,8.654256318E0
1.518797025E1,-2.133064270E-1,-8.516390076E0,1.869612122E-1,8.521112254E0
1.519800825E1,-4.843927002E-1,-8.779093781E0,3.930825806E-1,8.801229335E0
1.520804525E1,-1.209335175E0,-9.949360199E0,3.210823059E-1,1.002772924E1
1.521808225E1,-6.861730957E-1,-1.046668442E1,6.243516541E-1,1.050771770E1
1.522811925E1,2.936892700E-1,-1.031939072E1,1.242117004E0,1.039802543E1
1.523815725E1,8.475375366E-1,-8.547675018E0,1.667232971E0,8.749899078E0
1.524819425E1,1.655257874E0,-7.714956665E0,1.390757904E0,8.012155922E0
1.525823125E1,2.017205200E0,-7.652237091E0,6.521937561E-1,7.940478954E0
1.526826925E1,1.228046265E0,-7.949369202E0,-1.724414062E-1,8.045514550E0
1.527830625E1,1.064286804E-1,-7.115902405E0,-3.423381042E-1,7.124927331E0
1.528834325E1,3.778143311E-1,-6.503226471E0,-2.815644836E-1,6.520274286E0
1.529838100E1,7.988887024E-1,-7.550598450E0,5.433700562E-2,7.592938339E0
1.530841800E1,1.420246582E0,-8.387957153E0,7.273374939E-1,8.538380724E0
1.531845500E1,2.636317749E0,-8.364156647E0,1.820963287E0,8.956851845E0
1.532849200E1,3.026256866E0,-8.882678375E0,2.291734314E0,9.659826702E0
1.533853000E1,2.650388489E0,-1.011252090E1,1.413061523E0,1.054914125E1
1.534856700E1,2.393822021E0,-1.081890198E1,3.824546814E-1,1.108716805E1
1.535860400E1,1.872456207E0,-1.108594666E1,3.841012573E-1,1.124952618E1
1.536864200E1,1.199904785E0,-1.132395172E1,6.921606445E-1,1.140836274E1
1.537867900E1,9.613009644E-1,-1.109941864E1,8.005352783E-1,1.116969339E1
1.538871600E1,6.002517700E-2,-1.160012741E1,-5.014572144E-2,1.160039110E1
1.539875300E1,-3.041674805E-1,-1.157228531E1,-1.143472137E0,1.163261938E1
1.540879100E1,-7.680528259E-1,-1.173664352E1,-2.145787811E0,1.195588189E1
1.541882800E1,-1.083896027E0,-1.241129059E1,-3.623514862E0,1.297477648E1
1.542886500E1,-5.992039490E-1,-1.195938034E1,-3.042572937E0,1.235488056E1
1.543890300E1,-2.495011597E0,-1.281889297E1,-1.228944397E0,1.311714162E1
1.544894000E1,-2.371219025E0,-1.213436646E1,-6.831793213E-1,1.238274053E1
1.545897700E1,-1.337468719E0,-1.026520340E1,5.149291992E-2,1.035209520E1
1.546901500E1,-3.127895508E0,-1.240679993E1,4.864883423E-2,1.279510772E1
1.547905200E1,-3.769311676E0,-1.251607269E1,3.480262756E-1,1.307596683E1
1.548908900E1,-2.880460052E0,-1.159848083E1,1.256337433E0,1.201666308E1
1.549912600E1,-1.989213409E0,-1.039797729E1,2.550695801E0,1.088948809E1
1.550916400E1,-1.873803406E0,-9.759405212E0,2.511028290E0,1.024999475E1
1.551920100E1,-1.258283386E0,-9.114995270E0,1.835034027E0,9.382631066E0
1.552923800E1,-5.212161255E-1,-8.400830383E0,2.311642914E0,8.728648827E0
1.553927600E1,-5.141807556E-1,-9.183702393E0,1.833986206E0,9.379140520E0
1.554931300E1,-3.171903992E-1,-9.638157349E0,1.981579285E0,9.844863802E0
1.555935000E1,-2.730322266E-1,-9.215137024E0,2.058369598E0,9.446172895E0
1.556938800E1,-3.239263916E-1,-9.876910858E0,2.008223877E0,1.008420842E1
1.557942500E1,4.022135925E-1,-9.602980499E0,2.024539948E0,9.822309924E0
1.558946200E1,1.087338867E0,-9.607920227E0,1.651515656E0,9.809278305E0
1.559949900E1,1.718276825E0,-9.400900726E0,1.738784180E0,9.713535923E0
1.560953700E1,2.241289215E0,-9.268426208E0,1.832639008E0,9.710080713E0
1.561957400E1,2.341430969E0,-8.768016815E0,1.857187958E0,9.263345236E0
1.562961100E1,2.029779053E0,-9.438322906E0,1.767973480E0,9.814666195E0
1.563964900E1,1.165476379E0,-9.530680847E0,1.755249939E0,9.760794791E0
1.564968600E1,1.420545959E-1,-9.771230621E0,1.946252747E0,9.964187228E0
1.565972300E1,-4.337979126E-1,-9.711355133E0,1.743574219E0,9.876165764E0
1.566976100E1,-6.797364807E-1,-9.250463562E0,1.530118103E0,9.400764820E0
1.567979800E1,-7.015910339E-1,-9.163045349E0,1.389410706E0,9.294304286E0
1.568983500E1,-8.253836060E-1,-9.830806732E0,1.482068024E0,9.976098673E0
1.569987200E1,-9.674382019E-1,-1.027388535E1,1.639540558E0,1.044876787E1
1.570991000E1,-1.625020752E0,-1.069376221E1,1.506018219E0,1.092086688E1
1.571994700E1,-1.986968079E0,-1.062280975E1,1.403182068E0,1.089775432E1
1.572998400E1,-1.701960754E0,-1.019754410E1,1.403481445E0,1.043342399E1
1.574002200E1,-1.500479736E0,-8.987310791E0,1.543590088E0,9.241529368E0
1.575005900E1,-1.531614990E0,-9.008566589E0,1.763632507E0,9.306477104E0
1.576009600E1,-8.366102600E-1,-9.713450775E0,2.035167847E0,9.959565796E0
1.577013300E1,-6.390211487E-1,-8.753946075E0,2.496807861E0,9.125457217E0
1.578017100E1,-6.988966370E-1,-7.776778107E0,2.626587982E0,8.238064012E0
1.579020800E1,-4.272116089E-1,-8.531658325E0,2.350861359E0,8.859923965E0
1.580024500E1,6.598278809E-1,-9.450896759E0,1.398841095E0,9.576616250E0
1.581028300E1,1.202898560E0,-9.428742828E0,8.734336853E-1,9.545210457E0
1.582032000E1,2.240840149E0,-8.280780029E0,8.931925964E-1,8.624991332E0
1.583035700E1,2.573149109E0,-7.994275818E0,1.232985992E0,8.488215163E0
1.584039500E1,1.462159424E0,-8.975186005E0,1.567240906E0,9.227573790E0
1.585043200E1,5.399272156E-1,-9.209748230E0,1.838626556E0,9.406993753E0
1.586046900E1,-1.218765564E0,-1.025667114E1,1.868115234E0,1.049640638E1
1.587050600E1,-2.476150818E0,-1.072639435E1,2.522404633E0,1.129377633E1
1.588054400E1,-2.491419067E0,-1.036654266E1,2.934198303E0,1.105811446E1
1.589058100E1,-1.792372742E0,-1.010608429E1,2.003882904E0,1.045758511E1
1.590061800E1,-8.065228271E-1,-9.831255798E0,5.465135193E-1,9.879410239E0
1.591065600E1,-3.787124634E-1,-9.246421967E0,-1.315763855E-1,9.255109651E0
1.592069300E1,-1.045875092E0,-8.517737274E0,4.155358887E-1,8.591761930E0
1.593073000E1,-1.815873871E0,-9.272018738E0,1.309177551E0,9.538431488E0
1.594076800E1,-1.663041687E0,-9.326804810E0,2.475851440E0,9.792080267E0
1.595080500E1,-1.949994965E0,-9.825417938E0,3.335513763E0,1.055779191E1
1.596084200E1,-2.164049835E0,-8.704249420E0,3.628005524E0,9.675199933E0
1.597087900E1,-7.933502197E-1,-9.970316620E0,2.443368988E0,1.029595406E1
1.598091700E1,4.046086121E-1,-1.099478622E1,1.523980865E0,1.110727464E1
1.599095400E1,1.401236115E0,-1.127665009E1,9.744735718E-1,1.140508214E1
1.600099100E1,1.185684357E0,-1.059751236E1,1.346150665E0,1.074826671E1
1.601102900E1,1.040336609E-1,-1.031445099E1,1.484013977E0,1.042118130E1
1.602106600E1,-6.776408386E-1,-1.000923569E1,1.779200134E0,1.018869713E1
1.603110300E1,-1.047970734E0,-9.932145996E0,2.180964661E0,1.022264025E1
1.604114000E1,-1.672023010E0,-1.023646317E1,2.498005371E0,1.066868642E1
1.605117800E1,-2.006128235E0,-1.050859726E1,2.627486115E0,1.101629929E1
1.606121500E1,-1.776655426E0,-1.062295944E1,2.468516693E0,1.104976681E1
1.607125200E1,-1.108744354E0,-1.075094330E1,2.112407227E0,1.101246385E1
1.608129000E1,-6.137237549E-1,-1.122066650E1,1.428030396E0,1.132781022E1
1.609132700E1,3.165916443E-1,-1.071082672E1,1.032852173E0,1.076516711E1
1.610136400E1,6.724017334E-1,-9.632618866E0,1.381626892E0,9.754402246E0
1.611140200E1,9.505233765E-2,-9.643695831E0,1.451830902E0,9.752831240E0
1.612143900E1,4.924758911E-2,-9.701176300E0,1.122665405E0,9.766044468E0
1.613147600E1,-6.632707214E-1,-8.794511719E0,1.250349884E0,8.907678668E0
1.614151300E1,-1.089883575E0,-1.017524048E1,1.084794159E0,1.029077953E1
1.615155100E1,-1.594184875E-1,-1.127665009E1,1.397493896E0,1.136403276E1
1.616158800E1,7.403604126E-1,-1.062969543E1,1.486259308E0,1.075860239E1
1.617162500E1,-1.236428833E-1,-9.119635620E0,1.506616974E0,9.244075731E0
1.618166300E1,2.935395813E-1,-1.133308273E1,8.424481201E-1,1.136814183E1
1.619170000E1,6.652166748E-1,-1.045440994E1,2.076781311E0,1.067942981E1
1.620173700E1,6.643185425E-1,-1.041743683E1,2.671644287E0,1.077506345E1
1.621177500E1,1.478774872E0,-9.740993500E0,2.961142273E0,1.028795864E1
1.622181200E1,1.888622589E0,-9.478589172E0,2.824326782E0,1.006912954E1
1.623184900E1,1.892963562E0,-9.681866455E0,2.146236877E0,1.009594878E1
1.624188600E1,2.227667542E0,-9.705217896E0,8.668473816E-1,9.995257949E0
1.625192400E1,2.556533661E0,-9.853858795E0,-2.899470520E-1,1.018422637E1
1.626196100E1,2.575095062E0,-9.756710815E0,-2.737806702E-1,1.009452705E1
1.627199800E1,2.546953583E0,-9.167536011E0,6.747967529E-1,9.538660269E0
1.628203600E1,2.339784393E0,-9.682764587E0,1.283730469E0,1.004382820E1
1.629207300E1,1.672921143E0,-1.027119095E1,1.506916351E0,1.051507611E1
1.630211058E1,1.145717468E0,-1.091859467E1,7.572752380E-1,1.100462829E1
1.631214858E1,9.235794067E-1,-1.168021088E1,-5.695655823E-1,1.173050425E1
1.632218558E1,1.359173584E0,-1.104732697E1,-1.262624359E0,1.120200902E1
1.633222258E1,8.229885864E-1,-9.377998352E0,-6.611750793E-1,9.437230303E0
1.634225958E1,-3.261717224E-1,-8.260122986E0,-7.065307617E-2,8.266862258E0
1.635229758E1,-1.739981689E0,-8.182733917E0,2.300715637E-1,8.368847206E0
1.636233458E1,-3.036286011E0,-8.515491943E0,8.887019348E-1,9.084185539E0
1.637237158E1,-3.761378174E0,-9.563462677E0,1.107995911E0,1.033612302E1
1.638240958E1,-3.187770996E0,-1.036998550E1,9.142987061E-1,1.088735162E1
1.639244658E1,-1.405128021E0,-9.899663544E0,1.075064392E0,1.005651463E1
1.640248358E1,-8.632548523E-1,-1.018961060E1,8.220904541E-1,1.025910355E1
1.641252158E1,-1.557511139E0,-1.035741165E1,2.640509033E-1,1.047719142E1
1.642255858E1,-2.231559448E0,-1.023840912E1,-4.043092346E-1,1.048657927E1
1.643259558E1,-2.423610077E0,-1.000983444E1,-5.156776428E-1,1.031196367E1
1.644263258E1,-2.909799042E0,-1.040621017E1,-4.266128540E-1,1.081379393E1
1.645267058E1,-1.598226471E0,-8.884923706E0,-3.342549133E-1,9.033710393E0
1.646270758E1,-7.599696350E-1,-8.436156921E0,1.689985657E-1,8.472004365E0
1.647274458E1,-1.153950348E0,-9.344318390E0,-1.655557251E-1,9.416756144E0
1.648278258E1,-1.243613892E0,-9.653874664E0,-7.179071045E-1,9.760085151E0
1.649281958E1,-1.060694275E0,-9.211993561E0,-8.149053955E-1,9.308596485E0
1.650285658E1,-8.265811157E-1,-8.872948608E0,-1.225202179E0,8.995197259E0
1.651289358E1,-1.305285645E-1,-8.336464233E0,-1.985620880E0,8.570668813E0
1.652293158E1,2.104623413E-1,-8.457861786E0,-2.519410858E0,8.827635666E0
1.653296858E1,4.881349182E-1,-8.714128876E0,-2.492915955E0,9.076835777E0
1.654300558E1,9.048683167E-1,-8.482261047E0,-1.533111877E0,8.667062431E0
1.655304358E1,1.622476044E0,-8.061186676E0,-8.500822449E-1,8.266667948E0
1.656308058E1,1.794468384E0,-8.262817383E0,-3.465293884E-1,8.462526248E0
1.657311758E1,2.212548981E0,-8.357121277E0,7.604187012E-1,8.678426449E0
1.658315558E1,2.303559723E0,-8.174950104E0,1.655257874E0,8.653096280E0
1.659319258E1,2.022593994E0,-8.098608856E0,1.615290985E0,8.502206586E0
1.660322958E1,2.049088898E0,-8.110434265E0,6.327342224E-1,8.389175280E0
1.661326658E1,1.906585236E0,-8.278983765E0,-5.327421570E-1,8.512370624E0
1.662330458E1,1.674268341E0,-8.736881561E0,-4.073030090E-1,8.905176564E0
1.663334158E1,1.974244537E0,-8.711883545E0,4.908293152E-1,8.946254513E0
1.664337858E1,2.199226685E0,-9.475146332E0,8.469387817E-1,9.763826162E0
1.665341658E1,2.686613159E0,-9.626182251E0,1.072220306E0,1.005141440E1
1.666345358E1,1.437161407E0,-9.674382019E0,1.033151550E0,9.834963268E0
