"Time (s)","Acceleration x (m/s^2)","Acceleration y (m/s^2)","Acceleration z (m/s^2)","Absolute acceleration (m/s^2)"
8.591667283E-4,-3.664379883E-1,-9.136999512E-1,1.104014191E1,1.108394595E1
1.082016667E-2,-2.534230042E-1,-4.613406372E-1,1.092084000E1,1.093351749E1
2.078016684E-2,-2.031275940E-1,-8.292755127E-2,1.074914703E1,1.075138595E1
3.074116679E-2,-1.956431580E-1,1.645079041E-1,1.049722092E1,1.050033266E1
4.070116673E-2,-1.751358032E-1,3.665876770E-1,1.017808456E1,1.018618989E1
5.066216667E-2,-8.816665649E-2,5.800437927E-1,9.942923584E0,9.960218550E0
6.062216684E-2,1.541793823E-2,6.852749634E-1,9.796827393E0,9.820777283E0
7.058316679E-2,1.044827271E-1,5.363346863E-1,9.629774780E0,9.645264841E0
8.054316672E-2,1.727407837E-1,3.739224243E-1,9.548194427E0,9.557074562E0
9.050416667E-2,2.342628479E-1,2.517764282E-1,9.574988708E0,9.581162728E0
1.004641668E-1,2.719844055E-1,6.376739502E-2,9.647138672E0,9.651182640E0
1.104251668E-1,2.799179077E-1,-1.019380188E-1,9.729317780E0,9.733877431E0
1.203851667E-1,3.225791931E-1,-8.247848511E-2,9.865235138E0,9.870852261E0
1.303461667E-1,3.848497009E-1,2.245330811E-3,9.977651367E0,9.985070913E0
1.403061668E-1,4.192781067E-1,6.092330933E-2,1.007494904E1,1.008385362E1
1.502671668E-1,3.983216858E-1,7.005432129E-2,1.010368927E1,1.011178049E1
1.602271667E-1,3.456312561E-1,8.053253174E-2,1.014500336E1,1.015120877E1
1.701881667E-1,2.981799316E-1,2.948867798E-2,1.017000137E1,1.017441442E1
1.801481668E-1,2.457888794E-1,-4.939727783E-2,1.015488281E1,1.015797702E1
1.901091668E-1,2.308200073E-1,-1.103205872E-1,1.011521530E1,1.011844994E1
2.000691667E-1,2.615061951E-1,-9.235794067E-2,1.010623398E1,1.011003861E1
2.100301667E-1,3.107537842E-1,-3.487747192E-2,1.008587631E1,1.009072274E1
2.199901668E-1,2.805166626E-1,6.002517700E-2,1.004830444E1,1.005239846E1
2.299511668E-1,2.171983337E-1,1.975891113E-1,9.984836426E0,9.989152868E0
2.399111667E-1,1.583706665E-1,3.591032410E-1,9.906100159E0,9.913871936E0
2.498721669E-1,8.083190918E-2,4.879852295E-1,9.821526031E0,9.833973610E0
2.598321668E-1,8.981323242E-4,5.577401733E-1,9.717043304E0,9.733036807E0
2.697921668E-1,-7.140151978E-2,5.472619629E-1,9.663005676E0,9.678753666E0
2.797531667E-1,-1.094224548E-1,4.977149963E-1,9.589658203E0,9.603188947E0
2.897131669E-1,-9.475296021E-2,3.806584167E-1,9.544003143E0,9.552061293E0
2.996741668E-1,-6.047424316E-2,3.085084534E-1,9.545200653E0,9.550376438E0
3.096341668E-1,-1.107696533E-2,3.119512939E-1,9.525441742E0,9.530554899E0
3.195951667E-1,5.254074097E-2,3.083587646E-1,9.556576996E0,9.561694909E0
3.295551669E-1,1.276844788E-1,3.716770935E-1,9.594448242E0,9.602493648E0
3.395161668E-1,2.017803955E-1,4.541555786E-1,9.578880615E0,9.591763470E0
3.494761668E-1,2.359094238E-1,5.557942200E-1,9.619446259E0,9.638376772E0
3.594371667E-1,1.974394226E-1,6.105802917E-1,9.636959839E0,9.658301380E0
3.693971669E-1,1.142124939E-1,6.441105652E-1,9.605076141E0,9.627326243E0
3.793581668E-1,-1.646575928E-3,6.060896301E-1,9.645342407E0,9.664366379E0
3.893181668E-1,-1.543290710E-1,5.264552307E-1,9.720336456E0,9.735805739E0
3.992791667E-1,-2.478845215E-1,4.641847229E-1,9.825717316E0,9.839798522E0
4.092391669E-1,-2.404000854E-1,4.176315308E-1,9.852661285E0,9.864438286E0
4.192001668E-1,-2.415975952E-1,5.182223511E-1,9.902956696E0,9.919449335E0
4.291601668E-1,-2.692900085E-1,6.438111877E-1,9.887389069E0,9.911986307E0
4.391211667E-1,-2.471360779E-1,7.705975342E-1,9.820178833E0,9.853466858E0
4.490811669E-1,-2.348616028E-1,9.535171509E-1,9.726324005E0,9.775772787E0
4.590421668E-1,-1.538800049E-1,1.146465912E0,9.637857971E0,9.707026806E0
4.690021668E-1,-1.669029236E-1,1.262624359E0,9.595645752E0,9.679798255E0
4.789631667E-1,-2.924917603E-1,1.240171051E0,9.596244507E0,9.680469219E0
4.889231669E-1,-4.191284180E-1,1.070124664E0,9.752519531E0,9.820003698E0
4.988841668E-1,-5.019062805E-1,6.855743408E-1,1.007674530E1,1.011250305E1
5.088441668E-1,-6.104306030E-1,2.758763123E-1,1.025143204E1,1.027329509E1
5.188051667E-1,-5.887257385E-1,1.742376709E-1,1.031130753E1,1.032957016E1
5.287651669E-1,-4.477189636E-1,3.046165466E-1,1.039393570E1,1.040803261E1
5.387261668E-1,-1.942959595E-1,4.927752686E-1,1.045860123E1,1.047200640E1
5.486861668E-1,5.239105225E-3,6.259982300E-1,1.041384430E1,1.043264369E1
5.586471667E-1,1.933978271E-1,6.613247681E-1,1.029843430E1,1.032145833E1
5.686071669E-1,4.210743713E-1,7.735913086E-1,1.024424698E1,1.028203984E1
5.785681668E-1,6.935078430E-1,7.911048889E-1,1.029065048E1,1.034428767E1
5.885281668E-1,8.840615845E-1,6.542893982E-1,1.035801041E1,1.041623920E1
5.984891667E-1,8.349636841E-1,2.751278687E-1,1.051772827E1,1.055440513E1
6.084491669E-1,4.471202087E-1,-2.817141724E-1,1.058269318E1,1.059588006E1
6.184091668E-1,-8.861572266E-2,-5.815406799E-1,1.046698380E1,1.048350095E1
6.283701668E-1,-3.161425781E-1,-4.810995483E-1,1.044797333E1,1.046382098E1
6.383301667E-1,-5.370831299E-1,-2.718347168E-1,1.039947418E1,1.041688128E1
6.482913333E-1,-6.933581543E-1,-5.418731689E-2,1.026310776E1,1.028664487E1
6.582513335E-1,-7.548802185E-1,1.083746338E-1,9.975555725E0,1.000466397E1
6.682123335E-1,-7.628137207E-1,3.197351074E-1,9.691446533E0,9.726677296E0
6.781723334E-1,-6.491999817E-1,5.611830139E-1,9.430988159E0,9.469948503E0
6.881333333E-1,-6.191125488E-1,6.982978821E-1,9.209299164E0,9.256463221E0
6.980933335E-1,-6.536906433E-1,7.686515808E-1,9.021888885E0,9.078139444E0
7.080543335E-1,-8.505313110E-1,7.050338745E-1,9.090596008E0,9.157478477E0
7.180143334E-1,-1.149459686E0,5.266049194E-1,9.270671539E0,9.356490854E0
7.279753333E-1,-1.643582153E0,3.119512939E-1,9.129215698E0,9.281231339E0
7.379353335E-1,-2.690954132E0,-2.454895020E-1,8.970845032E0,9.368967916E0
7.478963335E-1,-3.248544617E0,1.422042847E-1,8.900790710E0,9.476145812E0
7.578563334E-1,-2.565065918E0,1.210682373E0,8.569978638E0,9.027172803E0
7.678173333E-1,-3.192860413E0,1.369502106E0,8.424181824E0,9.112449343E0
7.777773335E-1,-2.521955566E0,2.445764008E0,8.556955719E0,9.250054737E0
7.877383335E-1,-2.548899536E0,3.055146790E0,8.671766968E0,9.540982816E0
7.976983334E-1,-3.634741516E0,3.842509460E0,9.473948822E0,1.085043461E1
8.076593333E-1,-3.991749115E0,3.117716675E0,9.717791748E0,1.095854437E1
8.176193335E-1,-3.104843445E0,4.597539368E0,1.041848465E1,1.180348438E1
8.275803335E-1,-3.143163757E0,4.301604767E0,1.064661026E1,1.190519181E1
8.375403334E-1,-2.517913971E0,3.666924591E0,9.738748169E0,1.070651403E1
8.475013333E-1,-2.073338470E0,4.128115540E0,9.483079834E0,1.054840620E1
8.574613335E-1,-1.830992432E0,3.143463135E0,9.463919678E0,1.013901718E1
8.674223335E-1,-1.616189117E0,2.386786652E0,9.562115479E0,9.987135235E0
8.773823334E-1,-1.446142731E0,1.746867371E0,9.325307922E0,9.597095511E0
8.873433333E-1,-2.864742737E0,7.743397522E-1,8.824748840E0,9.310346132E0
8.973033335E-1,-3.841461639E0,3.923341370E-1,8.035140839E0,8.914832690E0
9.072633334E-1,-3.751648407E0,2.642005920E-1,7.465126190E0,8.358993765E0
9.172243334E-1,-3.726351013E0,-1.532812500E-1,7.704777832E0,8.559952597E0
9.271843336E-1,-1.312919769E0,-2.707868958E-1,8.861422577E0,8.962248264E0
9.371453335E-1,-8.217910767E-1,-7.125183105E-1,9.679022369E0,9.739943375E0
9.471053334E-1,-1.836081848E0,-8.009843445E-1,9.535171509E0,9.743319156E0
9.570663334E-1,-2.338437195E0,-1.051114197E0,9.283993835E0,9.631493711E0
9.670263336E-1,-2.392325134E0,-1.097068634E0,9.200168152E0,9.569214866E0
9.769873335E-1,-2.877615967E0,-1.068777466E0,8.889713745E0,9.404784388E0
9.869473334E-1,-3.532204742E0,-8.797206116E-1,8.444988556E0,9.196097564E0
9.969083334E-1,-4.361480255E0,-5.569917297E-1,7.988587646E0,9.118677667E0
1.006868334E0,-5.175637207E0,-2.415975952E-1,8.441096649E0,9.904428431E0
1.016829334E0,-5.492378540E0,-1.781295776E-2,9.334888000E0,1.083082053E1
1.026789333E0,-5.761069794E0,-7.679031372E-2,9.793683929E0,1.136274909E1
1.036750333E0,-6.472091217E0,9.071136475E-2,1.013811768E1,1.202820117E1
1.046710334E0,-6.942712555E0,5.135820007E-1,9.674531708E0,1.191895918E1
1.056671333E0,-5.659880219E0,7.655081177E-1,9.012009430E0,1.066942176E1
1.066631333E0,-2.699785767E0,1.458716583E0,8.552614746E0,9.086468855E0
1.076592333E0,-3.519331512E0,1.870510254E0,6.835385742E0,7.912458603E0
1.086552334E0,-4.400249634E0,2.657423859E0,6.770271149E0,8.500627614E0
1.096513333E0,-5.017416229E0,2.279908905E0,6.129603424E0,8.242844677E0
1.106473333E0,-5.193899231E0,2.058519287E0,6.025569763E0,8.217151687E0
1.116434333E0,-4.807253265E0,1.534459076E0,6.231691132E0,8.018617273E0
1.126394334E0,-4.965474243E0,1.296004944E0,5.930966492E0,7.842953959E0
1.136355333E0,-4.983137512E0,8.716374207E-1,5.386847992E0,7.389826963E0
1.146315333E0,-5.663023682E0,5.463638306E-1,5.668262787E0,8.031036899E0
1.156276333E0,-6.206842804E0,-2.230361938E-2,5.953719177E0,8.600707360E0
1.166236334E0,-5.328319702E0,1.666035461E-1,4.521946564E0,6.990475543E0
1.176196333E0,-5.154381409E0,-3.646417236E-1,3.714525604E0,6.363828388E0
1.186157333E0,-5.314698029E0,-9.041198730E-1,4.061953125E0,6.750030450E0
1.196117333E0,-4.801415405E0,-1.637295227E0,6.504124603E0,8.248512739E0
1.206078334E0,-4.397106171E0,-1.939666443E0,6.408772888E0,8.010569176E0
1.216038333E0,-4.650529175E0,-1.720372467E0,4.699776764E0,6.831910762E0
1.225999333E0,-4.727020111E0,-1.204994202E0,5.156477051E0,7.098308653E0
1.235959333E0,-4.763095093E0,-6.628216553E-1,5.195246429E0,7.079335624E0
1.245920334E0,-5.566923523E0,-7.295828247E-1,3.906875610E0,6.840073512E0
1.255880333E0,-5.012476501E0,-1.300944672E0,3.925287323E0,6.498096512E0
1.265841333E0,-4.149071960E0,-2.015708313E0,4.894372101E0,6.725530195E0
1.275801333E0,-3.895798645E0,-3.009791107E0,7.469616852E0,8.946019534E0
1.285762334E0,-3.497327271E0,-3.404220886E0,6.952592010E0,8.494619094E0
1.295722333E0,-3.292702789E0,-3.612737274E0,6.195616150E0,7.891731226E0
1.305683333E0,-3.230731659E0,-3.350332947E0,7.273075562E0,8.634812449E0
1.315643333E0,-3.607348480E0,-2.913241882E0,6.406228180E0,7.908204652E0
1.325604334E0,-3.493285675E0,-2.478845215E0,5.789510651E0,7.201815881E0
1.335564333E0,-3.750600586E0,-2.726729736E0,5.723797302E0,7.366404507E0
1.345525333E0,-4.234544220E0,-3.674259338E0,4.765041046E0,7.357796043E0
1.355485333E0,-4.587659912E0,-5.017266541E0,4.181105347E0,7.981304964E0
1.365446334E0,-4.853956146E0,-6.224805450E0,4.157155151E0,8.921380617E0
1.375406333E0,-4.787494354E0,-6.284231873E0,3.753893738E0,8.746621669E0
1.385367333E0,-1.790127411E0,-3.655099182E0,4.399800568E0,5.993542459E0
1.395327333E0,-1.990710297E0,-2.744093628E0,4.575684814E0,5.694722895E0
1.405288334E0,-2.625689850E0,-2.571352844E0,3.773053894E0,5.267071133E0
1.415248333E0,-3.667673035E0,-3.463647308E0,3.743565216E0,6.281955006E0
1.425209333E0,-5.020260315E0,-4.333937531E0,4.115990753E0,7.805601068E0
1.435169333E0,-6.408623199E0,-5.459746399E0,5.248535614E0,9.921008424E0
1.445129334E0,-6.798412628E0,-7.174879761E0,7.683072968E0,1.251906243E1
1.455090333E0,-6.590944061E0,-7.938292236E0,8.816815338E0,1.357178175E1
1.465050333E0,-6.595883789E0,-8.209228821E0,9.405840454E0,1.411973638E1
1.475011333E0,-6.878047028E0,-6.736441498E0,9.808054047E0,1.374354755E1
1.484971334E0,-6.630611572E0,-5.956114197E0,1.038675064E1,1.368666851E1
1.494932333E0,-8.170309753E0,-6.439010010E0,7.568561096E0,1.286459982E1
1.504892333E0,-8.558003540E0,-7.128775635E0,7.731123047E0,1.355836016E1
1.514853333E0,-8.828640747E0,-8.624764709E0,7.528594208E0,1.445721946E1
1.524813334E0,-8.739575958E0,-9.133706360E0,7.548203430E0,1.472345594E1
1.534774333E0,-7.496860199E0,-8.651858368E0,8.828491058E0,1.445682608E1
1.544734333E0,-6.415508881E0,-7.955057373E0,9.249864807E0,1.378411009E1
1.554695333E0,-5.819897461E0,-7.301217041E0,9.329199829E0,1.319897519E1
1.564655334E0,-6.002368011E0,-7.506290588E0,9.255852356E0,1.334329880E1
1.574616333E0,-6.715634766E0,-8.242609406E0,8.361312561E0,1.352597161E1
1.584576333E0,-7.230414276E0,-8.153843994E0,8.013136597E0,1.352680378E1
1.594537333E0,-7.541766815E0,-8.322393494E0,8.228388977E0,1.392288998E1
1.604497334E0,-7.633076935E0,-8.694819031E0,8.367449799E0,1.427858388E1
1.614458333E0,-7.295678558E0,-8.461454315E0,8.757538605E0,1.419569009E1
1.624418333E0,-6.672225037E0,-8.119116211E0,8.362510071E0,1.343019768E1
1.634379333E0,-5.991440735E0,-7.788453827E0,7.318131866E0,1.225203775E1
1.644339042E0,-5.297184448E0,-7.430997162E0,6.341412964E0,1.111275845E1
1.654300042E0,-3.982468414E0,-6.630461884E0,5.387746124E0,9.426074886E0
1.664260042E0,-3.792812805E0,-6.520740051E0,4.825365601E0,8.954866441E0
1.674221042E0,-4.248165894E0,-7.212751007E0,4.372856598E0,9.444181562E0
1.684181042E0,-4.558320923E0,-7.756570129E0,4.946912842E0,1.026716205E1
1.694142042E0,-5.183870087E0,-8.822503510E0,6.017636261E0,1.187101611E1
1.704102042E0,-5.597909088E0,-9.543554077E0,6.779402161E0,1.297598953E1
1.714063042E0,-4.823719025E0,-9.460027771E0,7.887847137E0,1.322794478E1
1.724023042E0,-4.069287872E0,-9.455686798E0,8.879235535E0,1.359448198E1
1.733984042E0,-3.448828125E0,-9.212592316E0,8.895102539E0,1.326231962E1
1.743944042E0,-2.922073517E0,-8.644224243E0,8.336464233E0,1.235952112E1
1.753905042E0,-2.592159576E0,-7.935597839E0,7.371570740E0,1.113701304E1
1.763865042E0,-2.188449097E0,-7.234006805E0,6.064788208E0,9.690295141E0
1.773825042E0,-1.871558075E0,-6.623127136E0,5.010680237E0,8.513251971E0
1.783786042E0,-1.683698730E0,-6.182293854E0,4.318220215E0,7.726747345E0
1.793746042E0,-1.255738678E0,-5.896388397E0,4.238885193E0,7.369696292E0
1.803707042E0,-1.170416107E0,-6.011499023E0,4.573888550E0,7.643850524E0
1.813667042E0,-7.024891663E-1,-6.279142456E0,5.205125885E0,8.186235795E0
1.823628042E0,2.384541321E-1,-6.689888306E0,6.444997559E0,9.292440984E0
1.833588042E0,9.750723267E-1,-6.822362823E0,7.204368439E0,9.969870869E0
1.843549042E0,1.276994476E0,-6.812183990E0,7.885452118E0,1.049842468E1
1.853509042E0,5.098397827E-1,-6.888525238E0,8.476273499E0,1.093430057E1
1.863470042E0,-8.146060181E-1,-7.159461823E0,8.995543671E0,1.152567926E1
1.873430042E0,-1.743574219E0,-7.326963501E0,8.932524719E0,1.168393954E1
1.883391042E0,-2.614163818E0,-7.437882843E0,8.897198181E0,1.188764439E1
1.893351042E0,-2.972219238E0,-7.413782959E0,8.891060944E0,1.195195506E1
1.903312042E0,-2.160307617E0,-6.915020142E0,8.835227051E0,1.142565839E1
1.913272042E0,-2.476599884E0,-7.346572723E0,8.966504059E0,1.185343295E1
1.923233042E0,-2.843786316E0,-7.604486389E0,8.545878754E0,1.178759422E1
1.933193042E0,-1.556613007E0,-7.222929840E0,7.918832703E0,1.083058959E1
1.943154042E0,-1.068178711E0,-6.906787262E0,7.904911652E0,1.055141433E1
1.953114042E0,-1.020727386E0,-6.607110443E0,7.426656189E0,9.992547971E0
1.963075042E0,-1.056203613E0,-6.226751404E0,6.590944061E0,9.128446896E0
1.973035042E0,-2.284998322E0,-5.882018280E0,1.568139038E0,6.502185511E0
1.982996042E0,-2.114802246E0,-5.228327637E0,3.097359009E0,6.434394396E0
1.992956042E0,-3.612288208E0,-5.180427246E0,1.703757019E0,6.541272088E0
2.002917042E0,-3.102747803E0,-5.275928650E0,3.686533813E0,7.145138110E0
2.012877042E0,-2.856509857E0,-5.289101257E0,8.032296753E0,1.003254862E1
2.022838042E0,-1.111738129E0,-5.838309174E0,1.032687515E1,1.191495556E1
2.032798042E0,-8.237370300E-1,-8.012687531E0,7.802075500E0,1.121401294E1
2.042759042E0,-4.168830872E-1,-8.441695404E0,6.132597198E0,1.044244996E1
2.052719042E0,-6.659651184E-1,-8.220156097E0,3.282074890E0,8.876175493E0
2.062680042E0,-1.052611084E0,-7.236551514E0,4.901407471E0,8.803377937E0
2.072640042E0,-1.470841370E0,-6.129154358E0,6.662644958E0,9.171736222E0
2.082601042E0,-2.056124268E0,-6.001170502E0,6.766977997E0,9.275434524E0
2.092561042E0,-2.549198914E0,-6.364465027E0,6.482569427E0,9.435493446E0
2.102522042E0,-2.624941406E0,-6.564598846E0,5.502856750E0,8.959113116E0
2.112482042E0,-2.651885376E0,-7.030729523E0,5.135670319E0,9.101580263E0
2.122443042E0,-1.654210052E0,-7.167395325E0,6.070626068E0,9.537319723E0
2.132403042E0,-6.069877625E-1,-6.601871338E0,7.041357422E0,9.671290175E0
2.142363042E0,-1.227447510E-2,-5.998625793E0,7.972720642E0,9.977371222E0
2.152324042E0,-1.916015625E-2,-5.641618195E0,8.498277740E0,1.020043859E1
2.162284042E0,-3.564088440E-1,-5.505850525E0,8.602311401E0,1.021964670E1
2.172245042E0,-3.972738647E-1,-5.384902039E0,8.574469299E0,1.013294233E1
2.182205042E0,-3.695814514E-1,-5.606141968E0,8.608298950E0,1.027950529E1
2.192166042E0,2.332150269E-1,-6.081253967E0,8.612939301E0,1.054603065E1
2.202126042E0,1.005309448E0,-6.079008636E0,8.538244629E0,1.052932165E1
2.212087042E0,1.496737518E0,-5.963598633E0,8.614735565E0,1.058387456E1
2.222047042E0,1.397942963E0,-6.190676422E0,8.713829498E0,1.078005304E1
2.232008042E0,8.431965637E-1,-6.289470978E0,8.990005188E0,1.100402739E1
2.241968042E0,2.136058044E-1,-6.195765839E0,9.235195312E0,1.112303799E1
2.251929042E0,-2.903961182E-1,-6.147566071E0,9.349856873E0,1.119360183E1
2.261889042E0,-4.791535950E-1,-6.082002411E0,9.390721893E0,1.119848200E1
2.271850042E0,-1.451980591E-1,-6.220015411E0,8.987460480E0,1.093087920E1
2.281810042E0,-1.480421448E-1,-6.512507172E0,8.946745148E0,1.106701924E1
2.291771042E0,2.046244812E-1,-6.882388000E0,9.049281921E0,1.137095594E1
2.301731042E0,9.301657104E-1,-7.164102173E0,9.087452545E0,1.160910685E1
2.311692042E0,1.796114960E0,-7.407945099E0,8.808133392E0,1.164847172E1
2.321652042E0,1.711091766E0,-6.619384918E0,8.658444672E0,1.103235042E1
2.331613042E0,1.041534119E0,-5.933361511E0,8.304730225E0,1.025953782E1
2.341573042E0,1.410816193E0,-5.176834717E0,7.292984161E0,9.054150319E0
2.351534042E0,1.399888916E0,-5.032085724E0,6.986870728E0,8.723413224E0
2.361494042E0,1.023721161E0,-4.926255798E0,7.719746704E0,9.214688838E0
2.371455042E0,1.009351044E0,-4.897665253E0,7.244634705E0,8.802877169E0
2.381415042E0,9.163943481E-1,-5.336402893E0,7.692653046E0,9.407118864E0
2.391376042E0,7.186555481E-1,-6.830296326E0,7.510032806E0,1.017693502E1
2.401336042E0,1.359173584E-1,-7.541766815E0,5.595364380E0,9.391742265E0
2.411297042E0,-8.309220886E-1,-7.913743286E0,7.242838440E0,1.075994763E1
2.421257042E0,-7.490423584E-1,-7.252119141E0,5.125641174E0,8.912154281E0
2.431218042E0,5.932164001E-1,-4.644990692E0,4.184099121E0,6.279691846E0
2.441178042E0,7.794291687E-1,-3.612288208E0,4.692891083E0,5.973220458E0
2.451139042E0,-3.397933960E-2,-4.013004913E0,4.759502563E0,6.225610627E0
2.461099042E0,6.379733276E-1,-4.448898468E0,5.395829315E0,7.022441281E0
2.471060042E0,-2.242337036E-1,-5.793701935E0,6.083648987E0,8.404049492E0
2.481020042E0,1.848655701E-1,-7.362589417E0,6.706803131E0,9.961079582E0
2.490981042E0,5.441184998E-1,-7.690557404E0,8.154442749E0,1.122210652E1
2.500941042E0,5.403762817E-1,-7.984546051E0,8.165220337E0,1.143310130E1
2.510901042E0,4.210743713E-1,-7.796686707E0,7.125332794E0,1.057052481E1
2.520862042E0,8.632548523E-1,-7.117249603E0,6.736291809E0,9.837584978E0
2.530823042E0,3.439846802E-1,-6.897057495E0,7.799231415E0,1.041708876E1
2.540783042E0,-3.125500488E-1,-6.600823517E0,7.885152740E0,1.028806067E1
2.550743042E0,-8.828640747E-1,-6.767277374E0,7.836054840E0,1.039130634E1
2.560704042E0,-7.646099854E-1,-7.559579773E0,8.439450073E0,1.135588800E1
2.570664042E0,-1.487905884E-1,-8.576265564E0,9.398056641E0,1.272391207E1
2.580625042E0,1.519639893E0,-9.849817200E0,7.739655304E0,1.261865557E1
2.590585042E0,3.652255096E0,-1.047731232E1,7.528145142E0,1.340843055E1
2.600546042E0,3.562142487E0,-9.565857697E0,7.929310913E0,1.292549667E1
2.610506042E0,3.809877319E0,-9.136251068E0,6.157146149E0,1.165747389E1
2.620467042E0,3.669768677E0,-8.614136810E0,6.270161133E0,1.126878324E1
2.630427042E0,3.202739868E0,-7.070097656E0,6.531667328E0,1.014428418E1
2.640388042E0,2.765499115E0,-5.708529053E0,6.353986816E0,8.978220189E0
2.650348292E0,2.524799652E0,-4.853207703E0,7.108717346E0,8.970066923E0
2.660309292E0,2.923121338E0,-4.780758362E0,6.961872711E0,8.936887630E0
2.670269292E0,3.877985687E0,-5.072651367E0,6.182742920E0,8.888018615E0
2.680230292E0,4.365072784E0,-5.852978668E0,5.679040375E0,9.250011853E0
2.690190292E0,4.281845856E0,-6.477480011E0,4.799469452E0,9.128354630E0
2.700151292E0,4.028422852E0,-6.063441010E0,4.140539703E0,8.374818003E0
2.710111292E0,4.010310516E0,-6.041736145E0,4.870421906E0,8.735340613E0
2.720072292E0,2.969824219E0,-5.932014313E0,4.094734955E0,7.795864548E0
2.730032292E0,2.932402039E0,-5.988896027E0,5.336103516E0,8.540483479E0
2.739993292E0,3.163371735E0,-6.081253967E0,6.490652618E0,9.440187602E0
2.749953292E0,2.842289429E0,-5.651347961E0,3.784280548E0,7.371371802E0
2.759914292E0,6.670129395E-1,-4.788093109E0,-1.990859985E0,5.228218183E0
2.769874292E0,-2.934347992E0,-1.851200409E0,-6.486611023E0,7.356185401E0
2.779835292E0,-2.434537354E0,-2.226020966E0,1.319506073E0,3.552919608E0
2.789795292E0,3.515738983E0,-6.199807434E0,6.899602203E0,9.919805612E0
2.799756292E0,6.072721710E0,-9.543853455E0,6.699917450E0,1.314731842E1
2.809716292E0,9.506880341E0,-1.198931808E1,1.147992737E1,1.912885920E1
2.819677292E0,1.389949585E1,-1.368454285E1,2.250809418E1,2.978383792E1
2.829637292E0,1.310644501E1,-1.168754562E1,1.142439285E1,2.094980610E1
2.839598292E0,1.127665009E1,-8.745862885E0,8.927584991E0,1.683314375E1
2.849558292E0,5.374872894E0,-6.605014801E0,5.646557922E0,1.021758756E1
2.859519292E0,9.077124023E-1,-4.065246277E0,3.242257690E0,5.278485013E0
2.869479292E0,-4.215234375E-1,-2.146835632E0,3.599714355E0,4.212425511E0
2.879440292E0,-5.757028198E-1,-3.119662628E0,5.897735596E0,6.696791307E0
2.889400292E0,1.842668152E0,-5.214406586E0,9.703870697E0,1.116917940E1
2.899361292E0,4.090393982E0,-6.838828583E0,9.658814392E0,1.252172491E1
2.909321292E0,4.343966675E0,-7.172035675E0,8.548722839E0,1.197450644E1
2.919282292E0,2.102527771E0,-5.913153534E0,6.180497589E0,8.808209704E0
2.929242292E0,2.541265411E0,-5.438340912E0,6.220165100E0,8.644306545E0
2.939203292E0,3.046614532E0,-5.527256012E0,7.774832153E0,1.001401189E1
2.949163292E0,3.769611053E0,-6.229894867E0,8.449928284E0,1.115449889E1
2.959124292E0,3.958368530E0,-7.501500549E0,9.587113495E0,1.280054441E1
2.969084292E0,6.293512573E0,-8.584648132E0,7.479645996E0,1.300959601E1
2.979045292E0,7.868986359E0,-8.199648743E0,7.311395874E0,1.351338949E1
2.989005292E0,7.896828461E0,-8.038883057E0,5.537584534E0,1.255581073E1
2.998966292E0,6.781797180E0,-7.048692169E0,3.563190308E0,1.041024301E1
3.008926292E0,4.261787567E0,-6.159840546E0,3.162623291E0,8.130722901E0
3.018887292E0,2.571203156E0,-6.261179810E0,1.484912109E0,6.929532614E0
3.028847292E0,2.936892700E0,-6.561455383E0,1.697619781E0,7.386470632E0
3.038808292E0,2.875969391E0,-7.699838104E0,3.145259399E0,8.800645627E0
3.048768292E0,2.238295441E0,-8.280780029E0,3.328179016E0,9.200981466E0
3.058729292E0,2.139351196E0,-8.270900574E0,3.412154388E0,9.199316138E0
3.068689292E0,2.106868744E0,-8.549321594E0,2.229912872E0,9.083078060E0
3.078650292E0,6.802304535E0,-5.464536438E0,2.481838989E-1,8.728923228E0
3.088610292E0,6.968758392E0,-6.380781097E0,6.451583862E-2,9.448921803E0
3.098571292E0,7.310348053E0,-7.953111420E0,1.609153748E-1,1.080365973E1
3.108531292E0,9.141340485E0,-7.999365234E0,-9.580078125E-2,1.214755645E1
3.118492292E0,7.259753265E0,-8.498277740E0,5.605842590E-1,1.119102304E1
3.128452292E0,4.886288910E0,-8.168962555E0,1.896855469E0,9.705968741E0
3.138413292E0,6.173312531E0,-8.147557068E0,2.264041901E0,1.046987868E1
3.148373292E0,5.784121857E0,-6.777905273E0,2.014061737E0,9.135234547E0
3.158334292E0,6.021677856E0,-6.485862579E0,2.093845825E0,9.094570245E0
3.168294292E0,6.476581879E0,-7.273374939E0,1.836680603E0,9.910675631E0
3.178255292E0,7.180418243E0,-7.670499115E0,1.331630859E0,1.059094913E1
3.188215292E0,6.723568268E0,-7.381899261E0,6.161187744E-1,1.000391970E1
3.198176292E0,5.626649323E0,-6.959028625E0,7.140151978E-1,8.977587633E0
3.208136292E0,4.366270294E0,-7.500901794E0,1.578617249E0,8.821557483E0
3.218097292E0,4.336182861E0,-7.923023987E0,6.947053528E-1,9.058664716E0
3.228057292E0,3.939956818E0,-7.676336975E0,3.396437073E-1,8.635089283E0
3.238018292E0,4.682412872E0,-8.336015167E0,8.776249695E-1,9.601268914E0
3.247978292E0,6.103707275E0,-7.966583405E0,1.652114410E0,1.017109511E1
3.257939292E0,6.754703522E0,-8.261769562E0,2.301464081E0,1.091694064E1
3.267899292E0,6.261479187E0,-9.787846069E0,2.507286072E0,1.188673781E1
3.277860292E0,5.166955261E0,-1.002031265E1,1.627565460E0,1.139092014E1
3.287820292E0,4.669090576E0,-9.862540741E0,1.884281616E0,1.107342015E1
3.297781292E0,3.350332947E0,-9.501641235E0,2.421364746E0,1.036189771E1
3.307741292E0,2.815046082E0,-8.976233826E0,1.590442657E0,9.540794830E0
3.317702292E0,2.959495697E0,-9.067843323E0,1.467398529E0,9.650785240E0
3.327662292E0,2.499502258E0,-9.259744263E0,1.028511200E0,9.646150042E0
3.337623292E0,2.766846313E0,-9.366322632E0,1.712588654E0,9.915462574E0
3.347583292E0,2.519410858E0,-9.918674011E0,3.556753693E0,1.083411381E1
3.357544292E0,2.351011047E0,-8.990603943E0,3.592828674E0,9.963264028E0
3.367504292E0,2.192041626E0,-8.690328369E0,2.770139465E0,9.380859572E0
3.377465292E0,1.712438965E0,-8.099057922E0,2.477797394E0,8.640987580E0
3.387425292E0,2.380948792E0,-7.891888733E0,2.575993195E0,8.636351421E0
3.397386292E0,2.597099304E0,-8.445138245E0,2.950963440E0,9.315227855E0
3.407346292E0,4.177961884E0,-9.076225891E0,2.311942291E0,1.025564816E1
3.417307292E0,3.630101166E0,-9.007518768E0,1.721869354E0,9.862954066E0
3.427267292E0,2.207160187E0,-9.022936707E0,1.627864838E0,9.430529510E0
3.437228292E0,2.052681427E0,-8.377928009E0,1.994302826E0,8.853271854E0
3.447188292E0,3.208128662E0,-8.812923431E0,1.878892822E0,9.565037750E0
3.457149292E0,3.638783112E0,-1.049108368E1,2.335293732E0,1.134712193E1
3.467109292E0,3.132984924E0,-1.141915375E1,2.728076935E0,1.215134028E1
3.477070292E0,4.076772308E0,-1.078162949E1,1.963466949E0,1.169268187E1
3.487030292E0,3.708987122E0,-9.722132721E0,7.556286621E-1,1.043299692E1
3.496991292E0,2.644700317E0,-8.905131683E0,-1.097218323E0,9.354127330E0
3.506951292E0,9.147477722E-1,-1.113100296E1,-2.806962891E0,1.151585998E1
3.516912292E0,8.517288208E-1,-1.340432556E1,-2.971620483E0,1.375615913E1
3.526872292E0,1.154698792E0,-1.324281143E1,-3.089575195E0,1.364737553E1
3.536833292E0,1.642085266E0,-1.111004654E1,-2.456990662E0,1.149636383E1
3.546793292E0,1.915416870E0,-9.508826294E0,-1.065484314E0,9.758168686E0
3.556754292E0,1.696422272E0,-9.190288696E0,-1.082698517E0,9.408054577E0
3.566714292E0,1.543590088E0,-9.602681122E0,-1.158141632E0,9.794664217E0
3.576675292E0,1.825154572E0,-9.807155914E0,3.318598938E-1,9.981063437E0
3.586635292E0,5.310955811E-1,-1.047297134E1,1.546134796E0,1.059979830E1
3.596596292E0,-7.565267944E-1,-1.060349991E1,1.654958496E0,1.075850504E1
3.606556292E0,2.788700867E-1,-9.715396729E0,8.623567200E-1,9.757579681E0
3.616517292E0,1.054407349E0,-9.160350952E0,6.599775696E-1,9.244423985E0
3.626477292E0,1.786983948E0,-9.465117188E0,3.209326172E-1,9.637673617E0
3.636438292E0,1.722617798E0,-1.016595978E1,-2.731819153E-1,1.031449362E1
3.646397792E0,8.849597168E-1,-1.041444305E1,-6.144721985E-1,1.047002168E1
3.656358792E0,1.085692291E0,-1.099014587E1,-3.845503235E-1,1.105033543E1
3.666318792E0,9.627978516E-1,-1.017913239E1,-1.300794983E-1,1.022539175E1
3.676279792E0,1.077908478E0,-9.873617706E0,-1.573228455E-1,9.933527257E0
3.686239792E0,7.032376099E-1,-9.446705475E0,-2.020797729E-1,9.474999931E0
3.696200792E0,3.302133179E-1,-9.170380096E0,3.442840576E-2,9.176388029E0
3.706160792E0,1.905537415E-1,-9.085805969E0,6.767427063E-1,9.112966670E0
3.716121792E0,3.177891541E-1,-9.074878693E0,8.493338013E-1,9.120075720E0
3.726081792E0,2.623294830E0,-8.379574585E0,-2.381547546E-1,8.783829670E0
3.736042792E0,2.301015015E0,-8.886869659E0,6.259982300E-1,9.201249710E0
3.746002792E0,2.048939209E0,-8.619525604E0,3.885919189E-1,8.868222889E0
3.755963792E0,1.861079865E0,-8.867410126E0,1.362766113E0,9.162516689E0
3.765923792E0,2.055675201E0,-9.233399048E0,1.157243500E0,9.529987987E0
3.775884792E0,1.615440674E0,-9.240284729E0,1.202748871E0,9.457225560E0
3.785844792E0,1.683698730E0,-8.761131134E0,9.699829102E-1,8.974025129E0
3.795805792E0,2.020198975E0,-7.941286011E0,-2.170636139E0,8.476844262E0
3.805765792E0,1.832788696E0,-9.201066284E0,2.097138977E-1,9.384173650E0
3.815726792E0,7.005432129E-1,-9.393266602E0,1.453627167E0,9.530857788E0
3.825686792E0,1.851948853E0,-9.266180878E0,5.043013000E-1,9.462882352E0
3.835647792E0,2.217339020E0,-8.834777985E0,3.896397400E-1,9.117111028E0
3.845607792E0,2.408192139E0,-9.082063751E0,8.849597168E-1,9.437500996E0
3.855568792E0,2.171534271E0,-9.300758972E0,6.969506836E-1,9.576294628E0
3.865528792E0,1.697021027E0,-9.546697540E0,1.391206970E0,9.795650623E0
3.875489792E0,5.041516113E-1,-1.070439011E1,2.641407166E0,1.103699090E1
3.885449792E0,-5.222639465E-1,-1.145882126E1,2.980601807E0,1.185163834E1
3.895410792E0,5.147795105E-1,-1.154085068E1,2.165696411E0,1.175357279E1
3.905370792E0,1.260977783E0,-1.087698120E1,1.462309113E0,1.104704182E1
3.915331792E0,1.988614655E0,-1.128338608E1,1.958377533E0,1.162345182E1
3.925291792E0,1.791624298E0,-9.325756989E0,-2.494412842E0,9.818439614E0
3.935252792E0,-2.583627319E-1,-8.050109711E0,-7.664062500E-2,8.054619261E0
3.945212792E0,-4.445755005E-2,-8.089477844E0,1.779798889E0,8.283073847E0
3.955173792E0,2.168989563E-1,-9.664352875E0,5.516029358E-1,9.682511422E0
3.965133792E0,9.475296021E-1,-9.893077240E0,1.305585022E0,1.002373892E1
3.975094792E0,1.119372253E0,-9.672136688E0,1.484163666E0,9.849160581E0
3.985054792E0,1.577419739E0,-9.543105011E0,1.597777405E0,9.803672726E0
3.995015792E0,1.566941528E0,-1.080722626E1,1.510658569E0,1.102422489E1
4.004975792E0,1.915267181E0,-1.078043198E1,-1.886077881E-2,1.094926106E1
4.014936792E0,1.087189178E0,-8.302784271E0,-1.642684021E0,8.533265363E0
4.024896792E0,1.484463043E0,-6.572083282E0,1.630708923E0,6.932180089E0
4.034857792E0,1.427281952E0,-3.832929382E0,7.150630188E-1,4.152083398E0
4.044817792E0,4.984634399E-2,3.747457123E0,-1.145268402E0,3.918872192E0
4.054778792E0,2.401456146E0,4.058959351E0,2.818638611E-1,4.724572983E0
4.064738792E0,3.864214325E0,-6.716682587E0,7.741900635E-1,7.787512284E0
4.074699792E0,4.687651978E0,-9.386979675E0,-1.691482544E-1,1.049371620E1
4.084659792E0,4.364623718E0,-7.253915405E0,4.216731262E-1,8.476263159E0
4.094620792E0,2.241289215E0,-6.378086700E0,1.021924896E0,6.837228810E0
4.104580792E0,-3.453318787E-1,-8.048912201E0,-6.010002136E-1,8.078703051E0
4.114541792E0,-1.541793823E-1,-1.056443115E1,-1.456620941E0,1.066549209E1
4.124501792E0,2.278262329E-1,-6.577472076E0,-5.057981873E-1,6.600823851E0
4.134462792E0,1.493594055E0,-2.476150818E0,1.283580780E0,3.163815054E0
4.144422792E0,1.316212921E0,-5.258115692E0,7.482939148E-1,5.471758480E0
4.154383792E0,1.768572235E0,-7.142846375E0,-8.367599487E-2,7.359015135E0
4.164343792E0,3.679049377E0,-8.512198792E0,-1.298998718E0,9.363777563E0
4.174304792E0,2.443069611E0,-1.166209854E1,-2.248773651E0,1.212559749E1
4.184265792E0,1.477128296E0,-1.671828415E1,-5.905220032E-1,1.679379794E1
4.194225792E0,3.154540100E0,-2.543361053E1,2.215393066E0,2.572406722E1
4.204186792E0,3.301684113E0,-2.916535034E1,1.859732666E0,2.941049786E1
4.214146792E0,1.593137054E0,-2.862662064E1,2.268382874E0,2.876051209E1
4.224107792E0,1.743274841E0,-1.933349579E1,1.137035522E0,1.944520291E1
4.234067792E0,3.300037537E0,-9.674531708E0,-5.873785400E-1,1.023874138E1
4.244028792E0,3.369343414E0,-7.568411407E0,6.280938721E-1,8.308298754E0
4.253988792E0,3.479813690E0,-1.000249969E1,2.590812378E0,1.090281671E1
4.263949792E0,2.717299347E0,-9.745334473E0,1.369352417E0,1.020932837E1
4.273909792E0,1.142124939E0,-8.766220551E0,-7.737409973E-1,8.874105434E0
4.283870792E0,8.144563293E-1,-9.369915161E0,-1.725910950E0,9.562291454E0
4.293830792E0,1.503772888E0,-9.492809601E0,-2.350112915E0,9.894331596E0
4.303791792E0,1.989063721E0,-8.236023102E0,-2.423460388E0,8.812582554E0
4.313751792E0,2.192640381E0,-7.293433228E0,-1.870510254E0,7.842234930E0
4.323712792E0,2.418221283E0,-7.190148010E0,-1.067879333E0,7.660704201E0
4.333672792E0,2.623444519E0,-8.293653259E0,4.505630493E-2,8.698803113E0
4.343633792E0,2.782563629E0,-8.915909271E0,1.275198212E0,9.426676454E0
4.353593792E0,3.071462860E0,-9.059161377E0,1.564845886E0,9.692834034E0
4.363554792E0,3.517834625E0,-9.823921051E0,1.260079651E0,1.051058447E1
4.373514792E0,3.256178741E0,-1.009575577E1,7.716453552E-1,1.063590246E1
4.383475792E0,2.977608032E0,-1.022433838E1,3.832031250E-1,1.065598843E1
4.393435792E0,2.771187286E0,-1.030082932E1,1.913021851E-1,1.066879375E1
4.403396792E0,2.690954132E0,-9.983040161E0,-7.110214233E-2,1.033960253E1
4.413356792E0,2.629581757E0,-9.678423615E0,-7.846682739E-1,1.005993480E1
4.423317792E0,2.756368103E0,-9.468560028E0,-1.768721924E0,1.001896059E1
4.433277792E0,2.366428986E0,-9.430688782E0,-2.274370422E0,9.985521412E0
4.443238792E0,1.320853271E0,-8.205336914E0,-2.328857117E0,8.631093946E0
4.453199792E0,2.598596191E-1,-6.127807159E0,-2.753374329E0,6.722991730E0
4.463159792E0,1.195863190E0,-7.368127899E0,1.632355499E0,7.640941171E0
4.473120792E0,4.113895111E0,-6.528972931E0,8.247848511E-1,7.760920729E0
4.483080792E0,4.181105347E0,-5.012775879E0,1.153052216E0,6.628656979E0
4.493041792E0,3.971840515E0,-9.420060883E0,2.518662415E0,1.052885200E1
4.503001792E0,3.499422913E0,-8.547824707E0,1.908980255E0,9.431620940E0
4.512962792E0,2.541714478E0,-9.972112885E0,1.338366852E0,1.037759961E1
4.522922792E0,2.023342438E0,-1.083312241E1,3.537144470E-1,1.102613122E1
4.532883792E0,1.189725952E0,-9.624385986E0,-5.295986938E-1,9.712091857E0
4.542843792E0,1.289718018E0,-8.204438782E0,-8.173004150E-1,8.345308158E0
4.552804792E0,1.006656647E0,-6.389912109E0,-8.842112732E-1,6.528871568E0
4.562764792E0,7.505392456E-1,-6.492748260E0,-6.658154297E-1,6.569809687E0
4.572725792E0,5.170248413E-1,-6.328390045E0,2.245330811E-3,6.349475592E0
4.582685792E0,-1.187929688E0,-4.669689331E0,1.373543701E0,5.010369017E0
4.592646792E0,-1.994452515E0,-4.952002258E0,2.130818939E0,5.748091557E0
4.602606792E0,-1.927541656E0,-7.579638062E0,2.455643463E0,8.197348035E0
4.612567792E0,-2.136507111E0,-8.470735016E0,3.585643616E0,9.443243854E0
4.622527792E0,-1.300645294E0,-1.606159973E1,6.793323212E0,1.748759287E1
4.632488792E0,-8.001161499E0,1.181942139E0,2.715652771E0,8.531725648E0
4.642449792E0,-5.465733948E0,2.463097961E1,1.104927292E1,2.754352622E1
4.652410167E0,3.353775787E0,-2.871673325E1,4.772226105E0,2.930311796E1
4.662371167E0,1.460423035E1,-4.972210236E1,-4.918486954E1,7.144734004E1
4.672331167E0,1.052162018E1,-2.438923233E1,-1.189666077E1,2.910446155E1
4.682292167E0,-1.436712341E0,-1.788795181E1,1.776775177E1,2.525343472E1
4.692252167E0,3.625909882E0,-1.228600113E1,8.601113892E0,1.542958867E1
4.702213167E0,8.304580536E0,-1.109417953E1,6.438710632E0,1.528083349E1
4.712173167E0,8.001460876E0,-1.058957886E1,-2.139051819E0,1.344388706E1
4.722134167E0,5.485193481E0,-9.218729553E0,-4.201013947E0,1.152045313E1
4.732094167E0,3.195704498E0,-9.295370178E0,-2.823129272E0,1.022675378E1
4.742055167E0,2.994223480E0,-9.205407257E0,-2.752326508E0,1.006380635E1
4.752015167E0,-3.785627747E-1,-7.588619385E0,-4.511767731E0,8.836656721E0
4.761976167E0,-3.953428802E0,-8.169710999E0,-8.234376526E-1,9.113277493E0
4.771936167E0,-5.159770203E-1,-8.946296082E0,-1.964215393E0,9.173907999E0
4.781897167E0,3.885619812E0,-7.716004486E0,-7.027885437E-1,8.667680098E0
4.791857167E0,4.082759857E0,-9.003776550E0,1.564247131E-1,9.887435912E0
4.801818167E0,3.690874786E0,-9.906549225E0,-2.095642090E-1,1.057384468E1
4.811778167E0,2.781066742E0,-1.088117249E1,-6.245013428E-1,1.124829982E1
4.821739167E0,2.075583801E0,-1.140837616E1,-4.463717651E-1,1.160423813E1
4.831700167E0,1.769769745E0,-1.109283234E1,7.634124756E-3,1.123312390E1
4.841660167E0,1.268611908E0,-1.109238327E1,-8.232879639E-3,1.116469483E1
4.851621167E0,1.851649475E0,-1.137499557E1,-3.363505554E-1,1.152962540E1
4.861581167E0,2.386337585E0,-1.076411591E1,-9.711804199E-1,1.106815205E1
4.871542167E0,2.290387115E0,-9.153914337E0,-8.666976929E-2,9.436500012E0
4.881502167E0,2.110161896E0,-7.761360168E0,1.459015961E0,8.174363735E0
4.891463167E0,2.176024933E0,-6.795418854E0,1.814975739E0,7.362536169E0
4.901423167E0,2.416724396E0,-6.590644684E0,1.182241516E0,7.118626915E0
4.911384167E0,2.548600159E0,-7.204218750E0,-1.884580994E-1,7.644059590E0
4.921344167E0,2.645748138E0,-8.600814514E0,-1.570983124E0,9.134658258E0
4.931305167E0,2.814896393E0,-1.030457153E1,-2.383194122E0,1.094474533E1
4.941265167E0,3.124452667E0,-1.194935120E1,-2.183659058E0,1.254262992E1
4.951226167E0,3.303630066E0,-1.204605011E1,-2.834355927E0,1.280839055E1
4.961186167E0,3.144510956E0,-1.095496902E1,-4.248614960E0,1.216347091E1
4.971147167E0,2.914289703E0,-1.000175125E1,-2.869682465E0,1.080570174E1
4.981108167E0,2.583327942E0,-9.167086945E0,-1.154100037E-1,9.524829960E0
4.991068167E0,2.158211975E0,-7.910899200E0,3.257525940E0,8.823359923E0
5.001029167E0,1.144370270E0,-6.088289337E0,5.049299927E0,7.992013521E0
5.010989167E0,-1.255888367E-1,-5.991440735E0,2.444416809E0,6.472117750E0
5.020950167E0,5.216651917E-1,-8.330776062E0,-2.454895020E0,8.700601929E0
5.030910167E0,1.912273407E0,-1.091500214E1,-4.774920502E0,1.206623085E1
5.040871167E0,2.909499664E0,-1.286200333E1,-4.261188812E0,1.385835661E1
5.050831167E0,2.780467987E0,-1.191477310E1,-2.291584625E0,1.244765763E1
5.060792167E0,2.522554321E0,-1.165835632E1,-8.897497559E-1,1.196127949E1
5.070752167E0,2.538720703E0,-1.009470795E1,-4.778063965E-1,1.042000625E1
5.080713167E0,3.493585052E0,-7.997119904E0,-9.289682007E-1,8.776220439E0
5.090673167E0,4.604574738E0,-6.533164215E0,-1.127904510E0,8.071958360E0
5.100634167E0,5.556744690E0,-5.801036682E0,-3.607498169E-1,8.041117992E0
5.110594167E0,6.015540619E0,-5.791606293E0,6.930587769E-2,8.350702706E0
5.120555167E0,6.345005493E0,-7.341782684E0,-6.700067139E-1,9.726755712E0
5.130515167E0,6.404282227E0,-8.549022217E0,-2.568059692E0,1.098615230E1
5.140476167E0,5.619613953E0,-1.016416351E1,-3.467988281E0,1.212094153E1
5.150437167E0,3.952081604E0,-1.156929153E1,-2.262694702E0,1.243331182E1
5.160397167E0,2.470013580E0,-1.171538773E1,1.047821045E-3,1.197293939E1
5.170358167E0,2.194736023E0,-1.118608841E1,1.113085327E0,1.145357582E1
5.180318167E0,2.590962067E0,-1.075169174E1,1.477277985E0,1.115770182E1
5.190279167E0,2.420765991E0,-9.451345825E0,2.097887421E0,9.979437736E0
5.200239167E0,2.538121948E0,-9.388775940E0,1.407223663E0,9.827077649E0
5.210200167E0,3.094365234E0,-1.002076172E1,-4.340972900E-3,1.048764895E1
5.220160167E0,2.640958099E0,-9.920619965E0,-2.123334503E0,1.048341116E1
5.230121167E0,1.819616089E0,-1.107277405E1,-3.767365723E0,1.183682273E1
5.240081167E0,7.039860535E-1,-1.026250900E1,-2.811154175E0,1.066383023E1
5.250042167E0,-4.064048767E-1,-8.987460480E0,-9.262738037E-1,9.044202229E0
5.260002167E0,1.105151825E0,-8.673862610E0,9.931846619E-1,8.800208458E0
5.269963167E0,2.615810394E0,-8.763526154E0,2.386487274E0,9.451834540E0
5.279923167E0,2.273921356E0,-7.763605499E0,1.703757019E0,8.267229080E0
5.289884167E0,2.786006470E0,-7.432044983E0,6.358776855E-1,7.962503696E0
5.299844167E0,2.373015289E0,-7.843988342E0,-1.686243439E0,8.366765899E0
5.309805167E0,3.819906464E0,-9.637109528E0,-9.882449341E-1,1.041355816E1
5.319766167E0,3.240760803E0,-9.109606476E0,-8.699908447E-1,9.707952657E0
5.329726167E0,2.757715302E0,-9.167985077E0,-1.153201904E0,9.642967318E0
5.339687167E0,3.248095551E0,-9.657467194E0,-1.087039490E0,1.024687524E1
5.349647167E0,3.640729065E0,-9.657317505E0,-8.253836060E-1,1.035374075E1
5.359608167E0,3.852837982E0,-9.858199768E0,-1.312770081E-1,1.058516400E1
5.369568167E0,2.971919861E0,-9.221274261E0,-5.242098999E-1,9.702525583E0
5.379529167E0,2.709665222E0,-8.876990204E0,-7.201524353E-1,9.309235212E0
5.389489167E0,3.584895172E0,-9.239087219E0,-3.559597778E-1,9.916597874E0
5.399450167E0,4.470603333E0,-9.324858856E0,1.068029022E0,1.039615183E1
5.409410167E0,3.981869659E0,-8.910670166E0,1.427431641E0,9.863715825E0
5.419371167E0,2.479743347E0,-8.790919189E0,8.418493652E-1,9.172682139E0
5.429331167E0,1.964664459E0,-9.026828613E0,6.054908752E-1,9.257978205E0
5.439292167E0,3.083437958E0,-9.294172668E0,-7.155120850E-2,9.792566303E0
5.449252167E0,4.563260651E0,-9.342971191E0,-7.231462097E-1,1.042292660E1
5.459213167E0,5.219795380E0,-9.254355469E0,-9.568103027E-1,1.066793536E1
5.469173167E0,4.681664429E0,-9.214089203E0,-7.924520874E-1,1.036558739E1
5.479134167E0,4.210594025E0,-9.743388519E0,-4.107458496E-1,1.062221418E1
5.489094167E0,3.820056152E0,-9.417067108E0,1.576222229E-1,1.016360304E1
5.499055167E0,3.335962830E0,-9.219328308E0,5.429209900E-1,9.819339370E0
5.509015167E0,2.829565887E0,-9.574389954E0,2.692900085E-1,9.987387206E0
5.518976167E0,2.554887085E0,-9.682016144E0,-5.792953491E-2,1.001360277E1
5.528936167E0,2.761307831E0,-9.840386810E0,-2.692900085E-1,1.022401832E1
5.538897167E0,3.130589905E0,-1.001357666E1,-5.936654663E-1,1.050831810E1
5.548858167E0,3.436104584E0,-1.029005173E1,-1.068478088E0,1.090108365E1
5.558818167E0,3.502117310E0,-1.055095917E1,-1.471889191E0,1.121401011E1
5.568779167E0,3.275189209E0,-1.056218582E1,-1.631457367E0,1.117802696E1
5.578739167E0,2.786455536E0,-1.012988480E1,-1.641037445E0,1.063352737E1
5.588700167E0,2.466271362E0,-9.595346375E0,-1.096769257E0,9.967751466E0
5.598660167E0,2.780168610E0,-1.041863434E1,-1.862127686E-1,1.078480200E1
5.608621167E0,2.748584290E0,-9.537416840E0,1.076261902E0,9.983755568E0
5.618581167E0,2.607876892E0,-8.797954559E0,1.291963348E0,9.266833095E0
5.628542167E0,2.581082611E0,-8.158184967E0,1.185235291E0,8.638446162E0
5.638502167E0,3.200644226E0,-7.757617950E0,1.046174469E0,8.456904915E0
5.648463083E0,3.236569519E0,-6.976991272E0,7.650590515E-1,7.729107634E0
5.658423083E0,2.832859039E0,-6.118526459E0,6.113287354E-1,6.770168328E0
5.668384084E0,2.889591064E0,-5.837560730E0,9.113049316E-1,6.577030369E0
5.678344083E0,3.430416412E0,-6.780899048E0,1.197060699E0,7.692938514E0
5.688305083E0,3.744163971E0,-8.019273834E0,4.936734009E-1,8.864041409E0
5.698265083E0,3.998335419E0,-9.198820953E0,-1.797761536E-1,1.003181502E1
5.708226084E0,3.884721680E0,-9.912387085E0,-4.870870972E-1,1.065756699E1
5.718186083E0,3.995191956E0,-9.940229187E0,-3.869453430E-1,1.072004859E1
5.728147083E0,4.447551270E0,-9.659263458E0,1.044827271E-1,1.063451924E1
5.738107083E0,4.295467529E0,-9.318272552E0,5.819897461E-1,1.027715704E1
5.748068084E0,4.196223907E0,-9.306596832E0,1.187779999E0,1.027773618E1
5.758028083E0,3.440295868E0,-8.730145569E0,1.658101959E0,9.528923309E0
5.767989083E0,2.979104919E0,-8.730894012E0,1.784439240E0,9.396158778E0
5.777950083E0,1.954485626E0,-9.291627960E0,2.182162170E0,9.742494339E0
5.787910084E0,2.515219574E0,-9.878407745E0,2.792443085E0,1.056915358E1
5.797871083E0,5.124443665E0,-9.478439484E0,2.624791718E0,1.109009781E1
5.807831083E0,7.209757233E0,-8.079748077E0,1.823657684E0,1.098128661E1
5.817792083E0,7.680079193E0,-6.762487335E0,1.314266968E0,1.031708045E1
5.827752084E0,6.796616364E0,-6.437812500E0,9.756710815E-1,9.412298223E0
5.837713083E0,6.475084991E0,-7.697892151E0,9.620494080E-1,1.010493980E1
5.847673083E0,5.915249176E0,-8.783135376E0,1.277443542E0,1.066609122E1
5.857634083E0,5.306614838E0,-8.527017975E0,1.284329224E0,1.012520114E1
5.867594084E0,5.126539307E0,-8.009095001E0,9.539662170E-1,9.557042406E0
5.877555083E0,4.796924744E0,-7.948471069E0,4.561015320E-1,9.294982945E0
5.887515083E0,3.872896271E0,-8.188272400E0,1.640588379E-1,9.059472707E0
5.897476083E0,2.903961182E0,-8.477920074E0,-4.933740234E-1,8.975050822E0
5.907436084E0,2.007325745E0,-8.597521362E0,-1.299896851E0,8.923926380E0
5.917397083E0,1.006656647E0,-8.599317627E0,-2.069596252E0,8.901957644E0
5.927357083E0,-9.580078125E-2,-9.094038849E0,-2.415227509E0,9.409784498E0
5.937318083E0,-3.742218018E-3,-1.009680359E1,-1.938319244E0,1.028117397E1
5.947278084E0,1.324894867E0,-1.049602341E1,-1.646575928E-1,1.058059383E1
5.957239083E0,3.182382202E0,-1.022119492E1,1.321002960E0,1.078635392E1
5.967199083E0,5.198689270E0,-1.035726196E1,1.036893768E0,1.163505024E1
5.977160083E0,6.121220856E0,-1.039483383E1,1.152603149E-1,1.206379708E1
5.987120084E0,5.899232483E0,-1.013572266E1,-4.498146057E-1,1.173610459E1
5.997081083E0,5.524860992E0,-9.769584045E0,-4.430786133E-2,1.122367251E1
6.007042083E0,5.428162079E0,-9.249715118E0,-6.930587769E-2,1.072506301E1
6.017002083E0,7.308551788E0,-8.298742676E0,-3.559597778E-1,1.106393992E1
6.026963084E0,8.032895508E0,-6.969357147E0,-1.045875092E0,1.068612203E1
6.036923083E0,5.170398102E0,-6.524332581E0,-5.409750366E-1,8.342217100E0
6.046884083E0,1.633553009E0,-7.012916565E0,2.528242493E-1,7.205096410E0
6.056844083E0,5.969586182E-1,-8.266709290E0,-9.879455566E-2,8.288823948E0
6.066805084E0,-4.972659302E-1,-8.966504059E0,-4.206253052E-1,8.990127590E0
6.076765083E0,-7.111711121E-1,-9.407786407E0,-3.742218018E-3,9.434628951E0
6.086726083E0,5.059478760E-1,-9.564061432E0,5.810916138E-1,9.595046732E0
6.096686083E0,3.294499054E0,-9.793384552E0,1.400038605E0,1.042709035E1
6.106647084E0,6.288722534E0,-1.046593597E1,2.347717896E0,1.243364895E1
6.116607083E0,8.000712433E0,-1.110735214E1,2.778222656E0,1.396793443E1
6.126568083E0,8.404572601E0,-1.122770187E1,2.566862183E0,1.425787191E1
6.136528083E0,8.284372559E0,-1.147019760E1,1.786983948E0,1.426147164E1
6.146489084E0,7.456444244E0,-1.073657318E1,1.344204712E0,1.314075533E1
6.156449083E0,5.076543274E0,-9.473350067E0,5.963598633E-1,1.076435312E1
6.166410083E0,3.533402252E0,-8.813522186E0,1.817221069E-1,9.497164194E0
6.176370083E0,2.862347717E0,-8.405321045E0,-2.772235107E-1,8.883654045E0
6.186331084E0,2.741249542E0,-7.885302429E0,-1.311871948E0,8.450647991E0
6.196291083E0,2.071242828E0,-7.186106415E0,-2.685864716E0,7.946322516E0
6.206252083E0,1.642534332E0,-7.007228394E0,-2.947221222E0,7.777228409E0
6.216212083E0,2.147135010E0,-7.195686493E0,-1.853595428E0,7.734591707E0
6.226173084E0,2.270478516E0,-7.444020081E0,-4.670288086E-1,7.796577682E0
6.236134083E0,3.191662903E0,-7.794591064E0,4.785548401E-1,8.436312979E0
6.246094083E0,3.796255646E0,-8.472082214E0,8.683442688E-1,9.324256310E0
6.256055083E0,4.706812134E0,-9.776320038E0,1.454225922E0,1.094738722E1
6.266015084E0,5.804629211E0,-1.106259521E1,2.353106689E0,1.271266472E1
6.275976083E0,6.135890350E0,-1.185489761E1,3.367996216E0,1.376703114E1
6.285936083E0,5.357658691E0,-1.161240189E1,3.727997589E0,1.332104914E1
6.295897083E0,4.343218231E0,-1.040815613E1,3.714226227E0,1.187386774E1
6.305857084E0,3.334465942E0,-8.798703003E0,3.558999023E0,1.005993597E1
6.315818083E0,3.076552277E0,-6.995402985E0,3.105591888E0,8.248971924E0
6.325778083E0,3.826492767E0,-6.191873932E0,2.421065369E0,7.670913062E0
6.335739083E0,5.074297943E0,-6.512207794E0,1.759890289E0,8.441241840E0
6.345699084E0,6.501280518E0,-7.641010437E0,1.413360901E0,1.013159799E1
6.355660083E0,7.597451019E0,-8.692873077E0,1.029259644E0,1.159080151E1
6.365620083E0,7.723189545E0,-9.081015930E0,7.982899475E-1,1.194779368E1
6.375581083E0,6.646478577E0,-9.602830811E0,5.542973328E-1,1.169176131E1
6.385541084E0,4.897814941E0,-9.771230621E0,7.385641479E-1,1.095495395E1
6.395502083E0,3.627406769E0,-9.315727844E0,9.162446594E-1,1.003894264E1
6.405462083E0,2.920127563E0,-8.618627472E0,9.376501465E-1,9.148063854E0
6.415423083E0,2.954555969E0,-8.530011749E0,1.381327515E0,9.132281594E0
6.425383084E0,3.467838593E0,-8.783584442E0,2.021845551E0,9.657386789E0
6.435344083E0,4.476441193E0,-9.127868500E0,2.902164917E0,1.057256214E1
6.445304083E0,4.946164398E0,-9.660011902E0,3.507955170E0,1.140553031E1
6.455265083E0,5.043911133E0,-9.643396454E0,3.659440155E0,1.148162170E1
6.465226084E0,4.711751862E0,-9.238787842E0,3.527863770E0,1.095452551E1
6.475186083E0,4.192182312E0,-8.729696503E0,3.309767303E0,1.023408780E1
6.485147083E0,4.063300323E0,-8.170609131E0,2.956501923E0,9.592193008E0
6.495107083E0,4.182602234E0,-8.278085632E0,2.956801300E0,9.734656497E0
6.505068084E0,3.665577393E0,-8.222251740E0,3.155887299E0,9.539470946E0
6.515028083E0,3.462150421E0,-8.437504120E0,3.539838867E0,9.783068052E0
6.524989083E0,4.355642395E0,-9.183852081E0,3.702700195E0,1.081779776E1
6.534949083E0,4.976251831E0,-9.294022980E0,3.073408813E0,1.098124707E1
6.544910084E0,3.898942108E0,-8.664132843E0,1.600022736E0,9.634781795E0
6.554870083E0,2.350262604E0,-8.394842834E0,-3.936813354E-2,8.717721627E0
6.564831083E0,2.263892212E0,-8.800648956E0,-1.114133148E0,9.155212869E0
6.574791083E0,3.136128387E0,-9.503287811E0,-8.551716614E-1,1.004385877E1
6.584752084E0,2.660717010E0,-9.630373535E0,-1.212478638E-1,9.991907249E0
6.594712083E0,2.878364410E0,-9.237889709E0,9.404942322E-1,9.721528551E0
6.604673083E0,2.188299408E0,-8.965306549E0,1.597478027E0,9.365752072E0
6.614633083E0,2.262545013E0,-8.709787903E0,1.784289551E0,9.174050602E0
6.624594084E0,3.054997101E0,-8.666078796E0,1.902843018E0,9.383748747E0
6.634554083E0,4.387825470E0,-9.053323517E0,2.186652832E0,1.029549074E1
6.644515667E0,4.718188477E0,-9.298663330E0,2.620301056E0,1.075139153E1
6.654475667E0,3.597469025E0,-9.047036591E0,3.005450134E0,1.018937608E1
6.664436667E0,2.162253571E0,-8.951235809E0,3.326682129E0,9.791158103E0
6.674396667E0,7.544311523E-1,-9.433981934E0,3.178789673E0,9.983680948E0
6.684357667E0,1.910028076E-1,-1.076007431E1,2.621498566E0,1.107645864E1
6.694318667E0,-3.329077148E-1,-1.174891800E1,1.492097168E0,1.184796420E1
6.704278667E0,7.484436035E-1,-1.190055267E1,1.784289551E-1,1.192539973E1
6.714239667E0,2.439776459E0,-1.218436249E1,-1.202299805E0,1.248425902E1
6.724199667E0,2.331551514E0,-1.183528839E1,-1.840572510E0,1.220237235E1
6.734160667E0,2.426304474E0,-1.106124802E1,-1.978735199E0,1.149580593E1
6.744120667E0,2.349963226E0,-9.488768005E0,-2.436483307E0,1.007449732E1
6.754081667E0,2.154769135E0,-8.961115265E0,-2.538271637E0,9.559677804E0
6.764041667E0,3.241658936E0,-9.251062317E0,-2.297572174E0,1.006823443E1
6.774002667E0,4.591851196E0,-9.568701782E0,-1.959425354E0,1.079279848E1
6.783962667E0,4.908143463E0,-9.706565094E0,-1.623074799E0,1.099734741E1
6.793923667E0,6.118825836E0,-1.023077499E1,-1.205143890E0,1.198170098E1
6.803883667E0,7.469616852E0,-1.065888474E1,-1.051862640E0,1.305807852E1
6.813844667E0,7.619754639E0,-1.042252625E1,-1.257235565E0,1.297190639E1
6.823804667E0,6.780899048E0,-9.115144958E0,-8.402027893E-1,1.139176897E1
6.833765667E0,4.863985291E0,-7.529941406E0,-4.206253052E-2,8.964381727E0
6.843725667E0,4.018094330E0,-6.642137604E0,9.385482788E-1,7.819459499E0
6.853686667E0,3.580853577E0,-6.474186859E0,1.668729858E0,7.584343555E0
6.863646667E0,3.506158905E0,-6.672075348E0,1.851948853E0,7.761408008E0
6.873607667E0,4.246070251E0,-7.081324310E0,1.233135681E0,8.348346553E0
6.883567667E0,6.751110992E0,-7.418423309E0,5.251080322E-1,1.004421438E1
6.893528667E0,7.699987793E0,-7.852969666E0,2.559677124E-1,1.100111195E1
6.903489667E0,7.698341217E0,-8.245752869E0,8.744815063E-1,1.131466375E1
6.913449667E0,6.888674927E0,-8.326135712E0,1.671424255E0,1.093489996E1
6.923410667E0,6.158792725E0,-8.070167999E0,1.960473175E0,1.033933240E1
6.933370667E0,5.910908203E0,-7.160809021E0,1.910626831E0,9.479795172E0
6.943331667E0,5.826334076E0,-6.528224487E0,1.589095459E0,8.893205727E0
6.953291667E0,4.871020660E0,-6.713389435E0,8.590635681E-1,8.338730730E0
6.963252667E0,3.248245239E0,-7.567064209E0,-4.505630493E-2,8.234900603E0
6.973212667E0,1.902094574E0,-9.233249359E0,-4.644841003E-1,9.438569965E0
6.983173667E0,9.997709656E-1,-1.073552536E1,-9.630972290E-1,1.082490661E1
6.993133667E0,7.767347717E-1,-1.093071945E1,-1.306932220E0,1.103594203E1
7.003094667E0,1.393152924E0,-1.012000534E1,-1.655407562E0,1.034870800E1
7.013054667E0,2.060914307E0,-9.428892517E0,-1.773961029E0,9.813170722E0
7.023015667E0,2.063159637E0,-8.631800079E0,-2.290237427E0,9.165685341E0
7.032975667E0,2.264041901E0,-8.246351624E0,-1.868713989E0,8.753301823E0
7.042936667E0,2.833906860E0,-9.049281921E0,-1.462608490E0,9.594777485E0
7.052896667E0,3.772904205E0,-1.067999084E1,-1.506916351E0,1.142662713E1
7.062857667E0,4.479884033E0,-1.152573212E1,-1.980381775E0,1.252332918E1
7.072817667E0,6.599027252E0,-1.035681290E1,-2.357148285E0,1.250467441E1
7.082778667E0,8.778495026E0,-7.954907684E0,-2.356100464E0,1.207864813E1
7.092738667E0,8.850644989E0,-6.696624298E0,-2.039059753E0,1.128434572E1
7.102699667E0,6.444398804E0,-7.108717346E0,-2.612068176E0,9.944196217E0
7.112660667E0,3.728147278E0,-8.639883270E0,-3.025358734E0,9.884303745E0
7.122620667E0,3.137026520E0,-1.023287064E1,-3.490591278E0,1.125774419E1
7.132581667E0,4.355492706E0,-1.126168121E1,-2.857108612E0,1.240801556E1
7.142541667E0,5.251230011E0,-1.143412262E1,-1.468895416E0,1.266776344E1
7.152502667E0,5.556595001E0,-1.072998688E1,2.600093079E-1,1.208618928E1
7.162462667E0,4.906197510E0,-9.278006287E0,1.793719940E0,1.064751642E1
7.172423667E0,3.854783936E0,-8.037685547E0,2.841091919E0,9.356043578E0
7.182383667E0,3.524869995E0,-7.437284088E0,3.796405334E0,9.063696627E0
7.192344667E0,3.650458832E0,-7.685917053E0,4.212240601E0,9.494321540E0
7.202304667E0,4.073479156E0,-8.603508911E0,3.753594360E0,1.023245174E1
7.212265667E0,5.370382233E0,-9.494456177E0,2.216740265E0,1.113102155E1
7.222225667E0,5.840105438E0,-1.066187851E1,-4.619393921E-1,1.216535544E1
7.232186667E0,3.237916718E0,-1.117306549E1,-3.223995667E0,1.207127355E1
7.242146667E0,1.494641876E0,-1.022688309E1,-3.872447205E0,1.103716174E1
7.252107667E0,1.545386353E0,-8.864865417E0,-2.468965759E0,9.331122642E0
7.262067667E0,2.484533386E0,-8.170908508E0,-4.465214539E-1,8.551960793E0
7.272028667E0,1.717827759E0,-6.449188843E0,-8.328680420E-1,6.725818769E0
7.281989667E0,2.356100464E0,-5.607638855E0,-3.661386108E-1,6.093511336E0
7.291949667E0,3.859424286E0,-6.359974365E0,1.179397430E0,7.532291022E0
7.301910667E0,5.673202515E0,-8.144263916E0,1.522184601E0,1.004147935E1
7.311870667E0,6.848708038E0,-9.439071350E0,2.523452454E0,1.193183481E1
7.321831667E0,7.146887970E0,-9.934391327E0,3.611839142E0,1.275991852E1
7.331791667E0,6.104755096E0,-9.842183075E0,4.216880951E0,1.232552990E1
7.341752667E0,4.954996033E0,-9.031768341E0,4.236041107E0,1.113862062E1
7.351712667E0,4.640649719E0,-7.510032806E0,3.295696564E0,9.423260498E0
7.361673667E0,3.385809174E0,-6.976093140E0,2.282752991E-1,7.757685793E0
7.371633667E0,2.459086304E0,-8.022417297E0,-1.184636536E0,8.474057379E0
7.381594667E0,3.528761902E0,-8.628057861E0,-5.553451538E-2,9.321943311E0
7.391554667E0,4.059258728E0,-9.010362854E0,7.087760925E-1,9.907905113E0
7.401515667E0,4.637206879E0,-8.978778534E0,3.748205566E-1,1.011249930E1
7.411475667E0,5.692961426E0,-8.325536957E0,9.325607300E-2,1.008628138E1
7.421436667E0,5.411396942E0,-8.363108826E0,-1.441502380E-1,9.962207857E0
7.431397667E0,5.311704254E0,-8.324489136E0,5.366340637E-1,9.889352738E0
7.441357667E0,5.704038391E0,-8.304430847E0,1.057850189E0,1.013008750E1
7.451318667E0,5.985153809E0,-8.059839478E0,7.433541870E-1,1.006656118E1
7.461278667E0,6.207441559E0,-7.776927795E0,2.823129272E-1,9.954528479E0
7.471239667E0,5.556595001E0,-7.939340057E0,-2.170486450E-2,9.690683137E0
7.481199667E0,5.253625031E0,-8.309220886E0,-4.475692749E-1,9.840937250E0
7.491160667E0,5.042713623E0,-8.380772095E0,-1.077758789E0,9.840115121E0
7.501120667E0,4.758155365E0,-8.309969330E0,-8.584648132E-1,9.614187151E0
7.511081667E0,5.017565918E0,-8.189170532E0,2.604583740E-2,9.604122039E0
7.521041667E0,4.896018677E0,-8.289761353E0,8.357121277E-1,9.663827240E0
7.531002667E0,4.852010193E0,-8.577014008E0,1.453327789E0,9.960890214E0
7.540962667E0,3.521127777E0,-8.792715454E0,1.967807922E0,9.673802453E0
7.550923667E0,2.564616852E0,-8.753796387E0,2.905308380E0,9.573245404E0
7.560884667E0,1.930984497E0,-9.110354919E0,6.324348450E0,1.125720441E1
7.570844667E0,5.523813171E0,-8.484057312E0,5.348228302E0,1.144968499E1
7.580805667E0,9.537716217E0,-7.762857056E0,-2.264790344E-1,1.229964524E1
7.590765667E0,9.164542236E0,-7.638914795E0,2.549198914E-1,1.193343361E1
7.600726667E0,5.369783478E0,-8.023764496E0,1.999092865E0,9.859601593E0
7.610686667E0,3.095413055E0,-8.038883057E0,1.465901642E0,8.738082765E0
7.620647667E0,2.146536255E0,-8.422834625E0,1.503323822E0,8.821096504E0
7.630607667E0,1.139131165E0,-8.956025848E0,6.732998657E-1,9.053250881E0
7.640568667E0,8.949888611E-1,-9.199120331E0,-4.629872131E-1,9.254143779E0
7.650529417E0,1.276994476E0,-8.888516235E0,1.901046753E-2,8.979799394E0
7.660489417E0,2.042801971E0,-8.647218018E0,2.471360779E-1,8.888672318E0
7.670450417E0,2.648292847E0,-9.066496124E0,5.402265930E-1,9.460795513E0
7.680410417E0,2.914888458E0,-8.981173553E0,1.751358032E-2,9.442370457E0
7.690371417E0,2.881358185E0,-8.078251190E0,-1.095122681E0,8.646366923E0
7.700331417E0,3.418591003E0,-7.339687042E0,-1.789079590E0,8.292079118E0
7.710292417E0,3.710633698E0,-6.873855743E0,-1.195563812E0,7.902409003E0
7.720252417E0,1.805994415E0,-8.030500488E0,-1.511856079E-2,8.231086349E0
7.730213417E0,4.144880676E-1,-9.477391663E0,8.960366821E-1,9.528674347E0
7.740173417E0,6.744973755E-1,-1.008842102E1,1.777403870E0,1.026598022E1
7.750134417E0,2.265538788E0,-1.033855087E1,2.139201508E0,1.079789254E1
7.760095417E0,5.138364716E0,-1.156465118E1,1.204844513E0,1.271202577E1
7.770055417E0,9.462572479E0,-1.357586884E1,1.457070007E0,1.661227093E1
7.780016417E0,1.251442612E1,-1.205907303E1,2.831511841E0,1.760822429E1
7.789976417E0,1.086186264E1,-1.123503662E1,1.415306854E0,1.569105482E1
7.799937417E0,9.279503174E0,-1.132350266E1,-5.430706787E-1,1.465011322E1
7.809897417E0,7.989934845E0,-1.032642609E1,-1.308129730E0,1.312194109E1
7.819858417E0,6.519841919E0,-8.559350739E0,-1.223405914E0,1.082901407E1
7.829818417E0,5.167853394E0,-7.104526062E0,-7.849676514E-1,8.820270601E0
7.839779417E0,3.841611328E0,-6.860982513E0,-5.086422729E-1,7.879706569E0
7.849739417E0,3.228785706E0,-5.233417053E0,-4.132905579E-1,6.163158303E0
7.859700417E0,1.817520447E0,-5.111720123E0,6.759942627E-1,5.467177648E0
7.869661417E0,1.468446350E0,-6.474186859E0,2.557282104E0,7.114149417E0
7.879621417E0,2.036814423E0,-7.762258301E0,3.891757050E0,8.918914724E0
7.889582417E0,2.971021729E0,-1.003857468E1,4.021686859E0,1.121489709E1
7.899542417E0,3.822002106E0,-1.154055130E1,3.384162598E0,1.261921475E1
7.909503417E0,4.104614410E0,-1.196432007E1,3.142565002E0,1.303336215E1
7.919463417E0,4.244723053E0,-1.123668320E1,2.693648529E0,1.231001484E1
7.929424417E0,4.096531219E0,-9.885293427E0,1.976040802E0,1.088142139E1
7.939384417E0,4.149670715E0,-8.309071198E0,1.491797791E0,9.406693992E0
7.949345417E0,3.774401093E0,-7.036417694E0,1.560055847E0,8.135788334E0
7.959306417E0,2.677332458E0,-6.290967865E0,2.102078705E0,7.152840041E0
7.969266417E0,1.994003448E0,-5.797893219E0,1.954186249E0,6.435095914E0
7.979227417E0,2.141147461E0,-6.275100861E0,1.513652344E0,6.800922487E0
7.989187417E0,3.267405396E0,-7.328011322E0,1.280437317E0,8.124974319E0
7.999148417E0,4.869972839E0,-9.005123749E0,9.102571106E-1,1.027800843E1
8.009108417E0,5.766009521E0,-9.567204895E0,1.080153809E0,1.122252233E1
8.019069417E0,6.352938995E0,-9.578880615E0,1.802850952E0,1.163464908E1
8.029030417E0,6.306984558E0,-9.284742279E0,2.515219574E0,1.150264417E1
8.038990417E0,5.540877686E0,-9.964478760E0,1.816472626E0,1.154520399E1
8.048951417E0,4.477638702E0,-1.015263748E1,1.317560120E0,1.117413356E1
8.058911417E0,3.081192627E0,-9.045090637E0,1.617087250E0,9.691356139E0
8.068872417E0,2.627336426E0,-8.208480377E0,1.938319244E0,8.833975792E0
8.078832417E0,2.796185303E0,-7.906857605E0,2.525847473E0,8.758821547E0
8.088793417E0,3.676055603E0,-7.587122498E0,2.913092194E0,8.919860914E0
8.098753417E0,3.991000671E0,-7.869136047E0,3.097957764E0,9.351402611E0
8.108714417E0,3.157533875E0,-8.604856110E0,3.276985474E0,9.734074308E0
8.118675417E0,3.067121887E0,-9.701026611E0,2.825224915E0,1.055931105E1
8.128635417E0,3.573967896E0,-1.030711624E1,1.770218811E0,1.105185805E1
8.138596417E0,4.621339874E0,-1.033151550E1,7.358697510E-1,1.134189134E1
8.148556417E0,5.849535828E0,-9.657317505E0,-3.517684937E-2,1.129079661E1
8.158517417E0,5.745202789E0,-9.374555511E0,-7.885601807E-1,1.102322427E1
8.168477417E0,4.723427582E0,-9.160201263E0,-9.693841553E-1,1.035179989E1
8.178438417E0,2.940784607E0,-9.450447693E0,-3.501219177E-1,9.903623633E0
8.188398417E0,2.460732880E0,-9.184301147E0,7.409591675E-1,9.537065291E0
8.198359417E0,2.790048065E0,-8.805888062E0,1.590592346E0,9.373260733E0
8.208320417E0,3.103196869E0,-8.919801178E0,2.615960083E0,9.799792397E0
8.218280417E0,3.503614197E0,-9.410181427E0,3.635190582E0,1.067901856E1
8.228241417E0,4.725672913E0,-1.012838791E1,3.765569458E0,1.179388568E1
8.238201417E0,6.279142456E0,-9.972112885E0,3.406316528E0,1.226677047E1
8.248162417E0,6.679559784E0,-8.949888611E0,2.644700317E0,1.147656154E1
8.258122417E0,5.462590485E0,-8.301736450E0,1.116378479E0,1.000025119E1
8.268083417E0,3.991898804E0,-7.859705658E0,3.121009827E-1,8.820863683E0
8.278044417E0,3.708687744E0,-7.754025421E0,8.164022827E-1,8.633990254E0
8.288004417E0,4.338278503E0,-8.277935944E0,1.320404205E0,9.438662571E0
8.297965417E0,5.011428680E0,-7.589218140E0,1.610351257E0,9.236009991E0
8.307925417E0,4.506079559E0,-6.480024719E0,2.973716125E0,8.434361917E0
8.317886417E0,4.809648285E0,-7.362439728E0,3.463347931E0,9.451614373E0
8.327846417E0,5.102140045E0,-7.622748413E0,2.813848572E0,9.594575040E0
8.337807417E0,4.127666473E0,-8.877588959E0,2.427052917E0,1.008661500E1
8.347768417E0,4.807852020E0,-9.039552155E0,1.329086151E0,1.032450552E1
8.357728417E0,4.999004517E0,-8.513995056E0,2.356998596E0,1.015054680E1
8.367689417E0,4.413721619E0,-8.427474976E0,3.097957764E0,1.000502950E1
8.377649417E0,3.569028168E0,-8.746761017E0,2.338287506E0,9.731977127E0
8.387610417E0,4.067341919E0,-8.364156647E0,1.458716583E0,9.414363535E0
8.397570417E0,5.223836975E0,-7.843389587E0,1.785037994E0,9.591329084E0
8.407531417E0,4.764442291E0,-8.766220551E0,1.929487610E0,1.016215802E1
8.417492417E0,4.492757263E0,-9.646689606E0,2.154619446E0,1.085752611E1
8.427452417E0,6.381379852E0,-8.369096375E0,9.708810425E-1,1.056912451E1
8.437413417E0,7.174281006E0,-8.322094116E0,-2.755769348E-1,1.099106460E1
8.447373417E0,7.545658722E0,-6.939419403E0,-1.365161133E-1,1.025237260E1
8.457334417E0,6.567293243E0,-6.737040253E0,1.503772888E0,9.527769141E0
8.467294417E0,4.156406708E0,-8.483308868E0,2.827470245E0,9.860873900E0
8.477255417E0,4.064797211E0,-8.281229095E0,1.955383759E0,9.429997738E0
8.487216417E0,5.782325592E0,-7.726333008E0,1.232686615E0,9.728875952E0
8.497176417E0,6.090983734E0,-7.960446167E0,6.929090881E-1,1.004733343E1
8.507137417E0,5.053191833E0,-8.108787689E0,7.467970276E-1,9.583574036E0
8.517097417E0,3.580105133E0,-8.541388092E0,1.169817352E0,9.334930955E0
8.527058417E0,1.934427338E0,-9.256451111E0,1.400637360E0,9.559585833E0
8.537018417E0,1.480870514E0,-9.811047821E0,1.592538300E0,1.004916987E1
8.546979417E0,1.973196716E0,-9.173972626E0,1.657652893E0,9.529065648E0
8.556940417E0,2.474653931E0,-8.374485168E0,1.769470367E0,8.909934865E0
8.566900417E0,3.075205078E0,-8.256979523E0,1.710642700E0,8.975572158E0
8.576861417E0,3.554208984E0,-8.322692871E0,1.691781921E0,9.206614155E0
8.586821417E0,3.166814575E0,-7.058571625E0,1.753004608E0,7.932538881E0
8.596782417E0,2.988535309E0,-6.768624573E0,1.810634766E0,7.617349943E0
8.606742417E0,3.134781189E0,-7.330705719E0,2.000140686E0,8.219894294E0
8.616703417E0,3.544928284E0,-7.839647369E0,2.421813812E0,8.938219596E0
8.626664417E0,2.898422699E0,-9.093140717E0,2.830464020E0,9.954777185E0
8.636624417E0,2.544408875E0,-1.108714417E1,2.706521759E0,1.169290564E1
8.646585417E0,4.146976318E0,-1.041818527E1,1.891915741E0,1.137169038E1
8.656545417E0,5.610632629E0,-9.072333984E0,1.104253693E0,1.072407659E1
8.666506417E0,6.231990509E0,-8.659791870E0,7.523355103E-1,1.069559300E1
8.676466417E0,5.451812897E0,-8.875643005E0,6.429130554E-1,1.043612188E1
8.686427417E0,4.338727570E0,-9.112450562E0,4.938230896E-1,1.010471046E1
8.696388417E0,4.750521240E0,-8.364456024E0,1.407822418E0,9.721807476E0
8.706348417E0,4.533771973E0,-8.541837158E0,1.986069946E0,9.872311997E0
8.716309417E0,4.660408630E0,-8.658145294E0,1.094823303E0,9.893509317E0
8.726269417E0,4.931045837E0,-7.906857605E0,6.502478027E-1,9.341115160E0
8.736230417E0,5.086871796E0,-7.806715851E0,1.270857239E0,9.404049934E0
8.746190417E0,4.875661011E0,-8.448431396E0,1.442400513E0,9.860455496E0
8.756151417E0,4.588108978E0,-9.359886017E0,1.175206146E0,1.048996281E1
8.766112417E0,4.702620850E0,-1.001297791E1,1.041833496E0,1.111124594E1
8.776072417E0,5.591771851E0,-9.926607513E0,1.684447174E0,1.151706610E1
8.786033417E0,5.867947540E0,-9.628577271E0,2.605332184E0,1.157281575E1
8.795993417E0,4.912783813E0,-9.083560638E0,2.509830780E0,1.062759471E1
8.805954417E0,4.117188263E0,-8.872649231E0,2.252366180E0,1.003734512E1
8.815915417E0,4.139342194E0,-7.999814301E0,1.943258972E0,9.214523215E0
8.825875417E0,3.182082825E0,-8.471333771E0,1.480571136E0,9.169582207E0
8.835836417E0,3.489992523E0,-8.811276855E0,1.041833496E0,9.534362311E0
8.845796417E0,4.201912079E0,-8.990304565E0,1.097517700E0,9.984296991E0
8.855757417E0,5.008883972E0,-8.679850159E0,1.181193695E0,1.009078471E1
8.865717417E0,5.473218384E0,-7.875872040E0,7.788304138E-1,9.622476639E0
8.875678417E0,5.714666290E0,-7.436535645E0,4.376898193E-1,9.388878824E0
8.885639417E0,6.000721436E0,-7.961943054E0,6.851252747E-1,9.993527485E0
8.895599417E0,5.449268188E0,-8.883277130E0,1.156794434E0,1.048548090E1
8.905560417E0,4.179907837E0,-9.171128540E0,1.598525848E0,1.020472994E1
8.915520417E0,4.250111847E0,-9.095685425E0,1.465901642E0,1.014612299E1
8.925481417E0,4.538112946E0,-8.256979523E0,1.559457092E0,9.550083056E0
8.935441417E0,5.259762268E0,-7.573949890E0,1.976040802E0,9.430511826E0
8.945402417E0,5.425617371E0,-7.958350525E0,2.142794037E0,9.867331616E0
8.955363417E0,5.929768982E0,-8.894503784E0,1.915117493E0,1.086011200E1
8.965323417E0,5.931265869E0,-9.089997253E0,1.432970123E0,1.094812168E1
8.975284417E0,5.737868042E0,-9.152567139E0,1.059796143E0,1.085429789E1
8.985244417E0,5.573509827E0,-9.238039398E0,7.993377686E-1,1.081870254E1
8.995205417E0,5.623206482E0,-9.170380096E0,9.181906128E-1,1.079626770E1
9.005165417E0,5.237458649E0,-8.859326935E0,1.056203613E0,1.034573404E1
9.015126417E0,4.571643219E0,-8.691974945E0,1.009949799E0,9.872707266E0
9.025087417E0,3.838467865E0,-8.833730164E0,6.568341064E-1,9.654017568E0
9.035047417E0,3.309467926E0,-8.715326385E0,4.562512207E-1,9.333684007E0
9.045008417E0,2.670446777E0,-9.130113831E0,6.780899048E-1,9.536774637E0
9.054968417E0,2.176923065E0,-8.882229309E0,5.382806396E-1,9.160935410E0
9.064929417E0,2.648292847E0,-8.322094116E0,3.135978699E-1,8.738938672E0
9.074889417E0,3.407514038E0,-7.918982391E0,1.935475159E-1,8.623160365E0
9.084850417E0,4.329746246E0,-8.340655518E0,2.841091919E-1,9.401805946E0
9.094811417E0,4.414470062E0,-8.974138184E0,-2.377056885E-1,1.000395952E1
9.104771417E0,4.784799957E0,-9.090296631E0,-1.523232422E0,1.038499112E1
9.114732417E0,5.158872070E0,-8.855135651E0,-1.842817841E0,1.041265413E1
9.124692417E0,4.742887115E0,-9.498946838E0,-1.571432190E0,1.073286394E1
9.134653417E0,4.583468628E0,-1.014380585E1,-1.833986206E0,1.128133357E1
9.144613417E0,5.514382782E0,-8.978479156E0,-1.591340790E0,1.065616586E1
9.154574417E0,6.693331146E0,-7.514972534E0,-8.358618164E-1,1.009822554E1
9.164535417E0,5.907764740E0,-6.788832550E0,3.068618774E-1,9.004670778E0
9.174495417E0,4.199966125E0,-7.771239624E0,1.915267181E0,9.038812374E0
9.184456417E0,3.483406219E0,-8.637637939E0,2.578238525E0,9.663861648E0
9.194416417E0,4.263434143E0,-9.188193054E0,1.973346405E0,1.031958615E1
9.204377417E0,4.779411163E0,-1.047536636E1,1.215173035E0,1.157811371E1
9.214337417E0,5.266797638E0,-1.054287598E1,-1.163081360E-1,1.178579309E1
9.224298417E0,4.353097687E0,-1.030981064E1,-1.083596649E0,1.124347974E1
9.234258417E0,4.758305054E0,-1.216759735E1,-2.049238586E0,1.322464635E1
9.244219417E0,4.743635559E0,-1.182870209E1,-2.482587433E0,1.298397134E1
9.254180417E0,4.885839844E0,-1.089569229E1,-1.669029236E0,1.205708091E1
9.264140417E0,4.433330841E0,-1.031235535E1,-8.909472656E-1,1.126023455E1
9.274101417E0,3.795956268E0,-1.039633072E1,-1.893562317E-1,1.106927424E1
9.284061417E0,3.668271790E0,-9.548643494E0,-7.185058594E-3,1.022902058E1
9.294022417E0,3.500321045E0,-9.439370728E0,-5.313949585E-2,1.006761099E1
9.303982417E0,2.726280670E0,-9.312734070E0,-1.113833771E0,9.767305044E0
9.313943417E0,1.754351807E0,-9.819280701E0,-1.854792938E0,1.014575185E1
9.323904417E0,1.273252258E0,-1.048344955E1,-1.819915466E0,1.071615501E1
9.333864417E0,8.262817383E-1,-1.107921066E1,-8.616082764E-1,1.114333968E1
9.343825417E0,1.395098877E0,-1.026505371E1,-3.760180664E-1,1.036624417E1
9.353785417E0,2.897973633E0,-9.642648010E0,1.063837738E0,1.012475494E1
9.363746417E0,2.395767975E0,-1.001896545E1,2.366728363E0,1.056980492E1
9.373706417E0,2.244432678E0,-8.910221100E0,2.650238800E0,9.563121028E0
9.383667417E0,3.224893799E0,-7.150330811E0,3.030148773E0,8.408862723E0
9.393628417E0,2.245031433E0,-6.166127472E0,2.695893860E0,7.094303196E0
9.403588417E0,1.051563263E0,-5.938301239E0,2.758164368E0,6.631491354E0
9.413549417E0,1.851649475E-1,-5.744005280E0,2.377955017E0,6.219529948E0
9.423509417E0,1.314266968E-1,-6.950196991E0,1.812880096E0,7.183943585E0
9.433470417E0,-1.148262177E0,-5.609584808E0,1.148860931E0,5.840019622E0
9.443430417E0,-3.950435028E0,-7.830216980E0,-1.073118439E0,8.835712651E0
9.453391417E0,-6.097420349E0,-1.025861710E1,-3.020718384E0,1.231025992E1
9.463352417E0,-5.702691193E0,-1.052805679E1,-4.532724152E0,1.280258782E1
9.473312417E0,-2.663261719E0,-9.704469452E0,-5.189558258E0,1.132259711E1
9.483273417E0,6.236032104E-1,-9.044491882E0,-4.235442352E0,1.000653218E1
9.493233417E0,2.456391907E0,-8.885073395E0,-3.644620972E0,9.912701572E0
9.503194417E0,3.708837433E0,-8.695417786E0,-4.176614685E0,1.033488635E1
9.513154417E0,4.765340424E0,-9.104067993E0,-5.369035034E0,1.159392343E1
9.523115417E0,5.961053925E0,-1.009021729E1,-6.354735260E0,1.333151563E1
9.533076417E0,6.375541992E0,-1.057416092E1,-6.005361786E0,1.373043281E1
9.543036417E0,5.055137787E0,-1.181073944E1,-5.315895538E0,1.390347905E1
9.552997417E0,3.821103973E0,-1.266920425E1,-4.032015381E0,1.383353606E1
9.562957417E0,4.252656555E0,-1.096544724E1,-2.709365845E0,1.206924953E1
9.572918417E0,2.277214508E0,-9.125772858E0,-2.076931000E0,9.632189707E0
9.582878417E0,3.457809448E-1,-1.031475037E1,-3.232378235E0,1.081489291E1
9.592839417E0,2.404749298E0,-7.834557953E0,-3.669768677E0,8.979438715E0
9.602800417E0,-1.133143616E0,-9.002728729E0,1.091230774E-1,9.074417164E0
9.612760417E0,-3.049608307E0,-9.633067932E0,1.426982574E0,1.020452781E1
9.622721417E0,-2.305954742E0,-9.874515839E0,2.014211426E0,1.033830441E1
9.632681417E0,-1.114881592E0,-8.242459717E0,1.865570526E0,8.524168964E0
9.642642417E0,-1.645827484E0,-6.715784454E0,7.976911926E-1,6.960375003E0
9.652602167E0,-2.795287170E0,-7.946076050E0,1.651066589E-1,8.425023155E0
9.662563167E0,-1.349443817E0,-8.319699097E0,-5.611830139E-1,8.447089324E0
9.672523167E0,2.029329987E0,-8.033045197E0,-8.804690552E-1,8.332059834E0
9.682484167E0,2.635569305E0,-9.611512756E0,-1.736389160E-2,9.966328538E0
9.692445167E0,3.194357300E0,-1.027987289E1,1.601669312E-1,1.076593511E1
9.702405167E0,5.055736542E0,-9.793384552E0,-6.806346130E-1,1.104237821E1
9.712366167E0,5.904022522E0,-1.038076309E1,-2.457140350E0,1.219242646E1
9.722326167E0,4.865332489E0,-1.206027054E1,-4.152514801E0,1.365155540E1
9.732287167E0,4.984335022E0,-1.246877106E1,-8.437953186E-1,1.345458427E1
9.742247167E0,4.885091400E0,-1.089045319E1,1.305285645E0,1.200707538E1
9.752208167E0,5.018913116E0,-9.026529236E0,1.050216064E0,1.038126547E1
9.762169167E0,3.748355255E0,-8.865164795E0,-7.637118530E-1,9.655287140E0
9.772129167E0,2.295027466E0,-8.823850708E0,-2.148482208E0,9.367148349E0
9.782090167E0,2.512076111E0,-8.085136871E0,-2.296823730E0,8.772420639E0
9.792050167E0,1.983225861E0,-7.760462036E0,-1.696422272E0,8.187539579E0
9.802011167E0,1.805096283E0,-7.627987518E0,-9.505233765E-1,7.896078828E0
9.811971167E0,1.460961914E0,-8.483458557E0,1.793270874E-1,8.610205399E0
9.821932167E0,1.982178040E0,-8.949589233E0,1.115031281E0,9.234038769E0
9.831893167E0,1.452279968E0,-1.031609756E1,6.881190491E-1,1.044052173E1
9.841853167E0,1.234482880E0,-1.195473999E1,-8.602610779E-1,1.204905828E1
9.851814167E0,2.476599884E0,-1.172930878E1,-1.407523041E0,1.207026729E1
9.861774167E0,2.869083710E0,-1.086081482E1,-2.023043060E0,1.141409844E1
9.871735167E0,2.402503967E0,-1.032717453E1,-2.176324310E0,1.082399864E1
9.881695167E0,2.294129333E0,-9.683063965E0,-1.233435059E0,1.002726878E1
9.891656167E0,2.902913361E0,-9.064550171E0,-2.704875183E-1,9.521876878E0
9.901616167E0,2.815794525E0,-9.344767456E0,6.267466736E-1,9.779886963E0
9.911577167E0,3.122806091E0,-9.812245331E0,5.867797852E-1,1.031389290E1
9.921538167E0,3.397784271E0,-9.815089417E0,1.827699280E-1,1.038818189E1
9.931498167E0,3.069217529E0,-9.760153656E0,9.909393311E-2,1.023183831E1
9.941459167E0,2.551743622E0,-9.580976257E0,-2.939886475E-1,9.919321090E0
9.951419167E0,2.742447052E0,-8.613987122E0,-7.732919312E-1,9.073024323E0
9.961380167E0,2.735112305E0,-7.691305847E0,-8.054750061E-1,8.202793118E0
9.971340167E0,2.500999146E0,-8.240813141E0,-8.854087830E-1,8.657363725E0
9.981301167E0,3.364703064E0,-7.623347168E0,-3.832031250E-1,8.341672098E0
9.991262167E0,3.502117310E0,-7.246580658E0,3.442840576E-1,8.055823260E0
1.000122217E1,3.656446381E0,-8.451275482E0,9.493258667E-1,9.257152749E0
1.001118317E1,3.639082489E0,-9.977801056E0,1.214723969E0,1.068994806E1
1.002114317E1,3.321592712E0,-1.090317673E1,9.190887451E-1,1.143490118E1
1.003110417E1,3.268303528E0,-1.117890335E1,5.574407959E-1,1.166020704E1
1.004106417E1,2.879861298E0,-1.096365097E1,3.513194275E-1,1.134101711E1
1.005102517E1,2.773881683E0,-9.535321198E0,-1.341210938E-1,9.931503330E0
1.006098617E1,2.538271637E0,-8.302933960E0,-4.221221924E-2,8.682356657E0
1.007094617E1,2.655627594E0,-7.697443085E0,4.026626587E-1,8.152614622E0
1.008090717E1,2.524051208E0,-7.870632935E0,1.279090118E0,8.363836968E0
1.009086717E1,2.655178528E0,-8.692873077E0,1.365161133E0,9.191282842E0
1.010082817E1,2.813848572E0,-9.281598816E0,-4.535568237E-2,9.698859598E0
1.011078817E1,2.449356537E0,-9.859097900E0,-1.053658905E0,1.021329310E1
1.012074917E1,2.251617737E0,-1.057595718E1,-1.514849854E0,1.091858154E1
1.013070917E1,2.962489471E0,-1.052311707E1,-1.496737518E0,1.103415424E1
1.014067017E1,3.425476685E0,-9.935439148E0,-1.405277710E0,1.060290748E1
1.015063117E1,2.310445404E0,-9.993668060E0,-1.280137939E0,1.033684248E1
1.016059117E1,2.660417633E0,-8.937614136E0,-5.331912231E-1,9.340399419E0
1.017055217E1,2.393522644E0,-8.238418121E0,-1.380130005E-1,8.580182479E0
1.018051217E1,1.545685730E0,-8.127349091E0,-2.649490356E-2,8.273067726E0
1.019047317E1,1.326242065E0,-7.539371796E0,-3.906875610E-1,7.665095033E0
1.020043317E1,1.178798676E0,-7.260651398E0,-9.596543884E-1,7.418056456E0
1.021039417E1,8.018824768E-1,-7.437733154E0,-1.348096619E0,7.601332414E0
1.022035517E1,9.154962158E-1,-7.921976166E0,-1.514251099E0,8.117191391E0
1.023031517E1,1.519490204E0,-8.641829224E0,-1.527124329E0,8.906299542E0
1.024027617E1,2.844983826E0,-9.844428406E0,-1.029708710E0,1.029888361E1
1.025023617E1,4.041146393E0,-1.085662354E1,-1.526824951E-1,1.158535501E1
1.026019717E1,5.024451599E0,-1.161285095E1,7.146139526E-1,1.267336160E1
1.027015717E1,4.204307098E0,-1.158306290E1,7.976911926E-1,1.234827338E1
1.028011817E1,2.356549530E0,-9.883646851E0,4.805007935E-1,1.017205396E1
1.029007917E1,1.460063782E0,-9.203012238E0,1.025367737E-1,9.318676638E0
1.030003917E1,1.056502991E0,-8.762029266E0,-2.053729248E-1,8.827883862E0
1.031000017E1,4.131408691E-1,-8.102949829E0,-4.881349182E-1,8.128145976E0
1.031996017E1,3.797602844E-1,-8.156239014E0,-7.006929016E-1,8.195085312E0
1.032992117E1,1.094523926E0,-9.395062866E0,2.487826538E-1,9.461875168E0
1.033988117E1,1.621877289E0,-1.108504852E1,1.046024780E0,1.125179784E1
1.034984217E1,3.629053345E0,-1.060843964E1,1.452729034E0,1.130572604E1
1.035980317E1,5.097799072E0,-9.481133881E0,1.475032654E0,1.086531989E1
1.036976317E1,4.633614349E0,-9.933044128E0,1.015039215E0,1.100754524E1
1.037972417E1,4.196822662E0,-1.005249573E1,8.756790161E-2,1.089374403E1
1.038968417E1,3.650907898E0,-9.438322906E0,-1.090632019E0,1.017843534E1
1.039964517E1,3.264261932E0,-9.377100220E0,-1.972148895E0,1.012298305E1
1.040960517E1,3.085683289E0,-1.000220032E1,-2.274669800E0,1.071165605E1
1.041956617E1,3.310066681E0,-1.056113800E1,-2.211501160E0,1.128649258E1
1.042952617E1,4.127666473E0,-1.021236328E1,-1.847607880E0,1.116886965E1
1.043948717E1,5.431455231E0,-8.410560150E0,-1.223854980E0,1.008642895E1
1.044944817E1,5.443130951E0,-7.188800812E0,-1.180594940E0,9.093972513E0
1.045940817E1,4.179309082E0,-8.448730774E0,-1.370250549E0,9.524980980E0
1.046936917E1,2.980601807E0,-1.079435303E1,-1.100511475E0,1.125225177E1
1.047932917E1,2.036215668E0,-1.233629654E1,-4.348457336E-1,1.251077445E1
1.048929017E1,1.477128296E0,-1.230800537E1,3.382965088E-2,1.239637240E1
1.049925017E1,1.261726227E0,-1.137694153E1,3.688330078E-1,1.145263242E1
1.050921117E1,2.068698120E0,-9.959988098E0,9.610015869E-2,1.017300890E1
1.051917217E1,5.074747009E0,-6.639592896E0,-8.912466431E-1,8.404259135E0
1.052913217E1,3.982468414E0,-5.928272095E0,-1.314266968E0,7.261663884E0
1.053909317E1,2.900518341E0,-7.125931549E0,-1.038690033E0,7.763426053E0
1.054905317E1,2.915187836E0,-8.051157532E0,-1.047821045E-2,8.562684597E0
1.055901417E1,2.815195770E0,-8.700058136E0,3.101550293E-1,9.149455445E0
1.056897417E1,3.078198853E0,-9.043444061E0,5.046006775E-1,9.566285094E0
1.057893517E1,3.201692047E0,-8.788374481E0,1.161434784E0,9.425247410E0
1.058889517E1,3.135379944E0,-8.151149597E0,1.442250824E0,8.851662815E0
1.059885617E1,3.104693756E0,-7.656727753E0,1.034349060E0,8.326732923E0
1.060881717E1,3.300037537E0,-8.035589905E0,1.782792664E-1,8.688655613E0
1.061877717E1,3.405717773E0,-9.719588013E0,-1.256786499E0,1.037539479E1
1.062873817E1,3.021915894E0,-1.231354385E1,-2.598296814E0,1.294242961E1
1.063869817E1,2.286495209E0,-1.386806122E1,-2.711760864E0,1.431449717E1
1.064865954E1,3.124452667E0,-1.213900681E1,-1.870959320E0,1.267352277E1
1.065861954E1,3.943699036E0,-1.009276199E1,-6.953041077E-1,1.085817915E1
1.066858054E1,4.182602234E0,-8.532107391E0,9.116043091E-2,9.502595867E0
1.067854154E1,3.887565765E0,-7.485184479E0,1.676513672E-1,8.436187601E0
1.068850154E1,3.192261658E0,-7.646099854E0,-1.636097717E-1,8.287348528E0
1.069846254E1,2.645149384E0,-7.828271027E0,-3.249742126E-1,8.269477055E0
1.070842254E1,3.285068665E0,-8.618477783E0,-1.190025330E-1,9.224098711E0
1.071838354E1,1.845661926E0,-9.337432709E0,4.790039062E-3,9.518095423E0
1.072834354E1,1.056652679E0,-9.753866730E0,-4.132905579E-1,9.819635439E0
1.073830454E1,8.734336853E-1,-9.565258942E0,-6.855743408E-1,9.629489976E0
1.074826454E1,2.837649078E0,-9.171128540E0,-1.143921204E0,9.668009449E0
1.075822554E1,4.034410400E0,-9.127868500E0,-8.231382751E-1,1.001359113E1
1.076818654E1,3.599265289E0,-9.365424500E0,-2.008822632E-1,1.003524989E1
1.077814654E1,3.282673645E0,-9.759105835E0,5.942642212E-2,1.029658314E1
1.078810754E1,2.776576080E0,-9.861492920E0,-9.774673462E-2,1.024538783E1
1.079806754E1,1.494941254E0,-1.008887009E1,-4.117936707E-1,1.020733672E1
1.080802854E1,8.443940735E-1,-9.818232880E0,-7.738906860E-2,9.854779921E0
1.081798854E1,4.110452271E-1,-9.638606415E0,-3.050656128E-1,9.652189225E0
1.082794954E1,1.169517975E0,-9.344917145E0,-2.806663513E-1,9.421996728E0
1.083791054E1,3.057691498E0,-8.647667084E0,6.316864014E-2,9.172546733E0
1.084787054E1,3.631598053E0,-8.495134277E0,1.377136230E-1,9.239847177E0
1.085783154E1,3.521427155E0,-9.390272827E0,2.996768188E-1,1.003331845E1
1.086779154E1,3.755390625E0,-9.815688171E0,4.499642944E-1,1.051918062E1
1.087775254E1,3.446133728E0,-9.925559692E0,3.384461975E-1,1.051223662E1
1.088771254E1,2.627935181E0,-1.023421783E1,1.863624573E-1,1.056787533E1
1.089767354E1,2.316133575E0,-9.891879730E0,-4.251159668E-2,1.015950622E1
1.090763354E1,2.500101013E0,-9.258696442E0,-4.691244507E-1,9.601772890E0
1.091759454E1,2.799628143E0,-8.907377014E0,-6.126759338E-1,9.357064434E0
1.092755554E1,3.063080292E0,-9.006620636E0,-4.435276794E-1,9.523570389E0
1.093751554E1,3.074456635E0,-9.050030365E0,-1.261875916E-1,9.558831336E0
1.094747654E1,3.019221497E0,-9.120084686E0,6.010002136E-1,9.625634752E0
1.095743654E1,2.817890167E0,-9.297016754E0,9.717791748E-1,9.763164461E0
1.096739754E1,2.472558289E0,-9.347461853E0,4.737648010E-1,9.680549606E0
1.097735754E1,2.182162170E0,-9.252858582E0,-1.836680603E-1,9.508467680E0
1.098731854E1,1.660646667E0,-1.015682877E1,-6.483018494E-1,1.031209063E1
1.099727954E1,2.695744171E0,-1.034708313E1,-7.072792053E-1,1.071584853E1
1.100723954E1,3.684288483E0,-1.004695724E1,-8.066725159E-1,1.073154472E1
1.101720054E1,3.751049652E0,-9.746082916E0,-9.002279663E-1,1.048174204E1
1.102716054E1,3.575315094E0,-9.341474304E0,-7.776329041E-1,1.003248390E1
1.103712154E1,3.081791382E0,-8.963360596E0,-5.171745300E-1,9.492457047E0
1.104708154E1,3.567381592E0,-8.948990479E0,2.203417969E-1,9.636347467E0
1.105704254E1,2.677033081E0,-9.652976532E0,8.295748901E-1,1.005159970E1
1.106700254E1,2.261048126E0,-1.002016296E1,1.188528442E0,1.034062882E1
1.107696354E1,1.890718231E0,-1.041234741E1,1.064885559E0,1.063606014E1
1.108692454E1,1.844314728E0,-1.038016434E1,6.587800598E-1,1.056329966E1
1.109688454E1,2.606230316E0,-9.760153656E0,3.147953796E-1,1.010703379E1
1.110684554E1,3.187621307E0,-9.184600525E0,5.882766724E-2,9.722205362E0
1.111680554E1,3.722758484E0,-8.920699310E0,-6.541397095E-2,9.666544672E0
1.112676654E1,4.080813904E0,-8.906179504E0,-1.396595764E-1,9.797580328E0
1.113672654E1,3.519032135E0,-8.668473816E0,2.523751831E-1,9.358937904E0
1.114668754E1,2.349813538E0,-8.371042328E0,6.740483093E-1,8.720683141E0
1.115664854E1,2.163002014E0,-8.744815063E0,6.010002136E-1,9.028375793E0
1.116660854E1,2.124232635E0,-9.235345001E0,3.848497009E-1,9.484306557E0
1.117656954E1,1.864971771E0,-9.568851471E0,2.580633545E-1,9.752314334E0
1.118652954E1,1.814077606E0,-9.412726135E0,1.875599670E-1,9.587777094E0
1.119649054E1,2.089654541E0,-9.117390289E0,3.173400879E-2,9.353847809E0
1.120645054E1,2.761008453E0,-9.070088654E0,2.589614868E-2,9.481051971E0
1.121641154E1,3.465443573E0,-8.964857483E0,1.338217163E-1,9.612277415E0
1.122637154E1,3.047213287E0,-9.662706299E0,1.802252197E-1,1.013340431E1
1.123633254E1,2.913541260E0,-1.001851639E1,2.815644836E-1,1.043736901E1
1.124629354E1,2.934497681E0,-9.981692963E0,1.857637024E-1,1.040576663E1
1.125625354E1,2.637365570E0,-9.848919067E0,7.619155884E-2,1.019621053E1
1.126621454E1,1.822310486E0,-9.595645752E0,-2.619552612E-2,9.767185834E0
1.127617454E1,1.254990234E0,-8.992549896E0,7.050338745E-2,9.079973835E0
1.128613554E1,1.680555267E0,-8.411158905E0,4.668791199E-1,8.590101061E0
1.129609554E1,2.338736572E0,-8.528514862E0,6.825805664E-1,8.869677037E0
1.130605654E1,3.200644226E0,-8.836574249E0,3.758683777E-1,9.405872897E0
1.131601754E1,3.952680359E0,-9.162895660E0,-1.782792664E-1,9.980687471E0
1.132597754E1,4.310286713E0,-9.420659637E0,-7.304809570E-1,1.038561515E1
1.133593854E1,4.066144409E0,-9.440717926E0,-8.566685486E-1,1.031477418E1
1.134589854E1,3.365900574E0,-8.807983704E0,-3.869453430E-1,9.437138883E0
1.135585954E1,2.700983276E0,-8.621621246E0,2.038760376E-1,9.037102910E0
1.136581954E1,2.223925323E0,-9.085656281E0,3.692820740E-1,9.361162489E0
1.137578054E1,2.081571350E0,-9.416168976E0,6.975494385E-2,9.643756696E0
1.138574154E1,2.273921356E0,-9.250014496E0,-8.891510010E-2,9.525827649E0
1.139570154E1,2.133213959E0,-9.602082367E0,-2.177970886E-1,9.838598637E0
1.140566254E1,2.191891937E0,-1.021386017E1,-1.639091492E-1,1.044768855E1
1.141562254E1,1.965861969E0,-1.105361389E1,1.044827271E-1,1.122755138E1
1.142558354E1,2.039059753E0,-9.989177399E0,2.710862732E-1,1.019877039E1
1.143554354E1,2.477498016E0,-9.971514130E0,2.579136658E-1,1.027791856E1
1.144550454E1,2.885100403E0,-9.760153656E0,1.616638184E-1,1.017892622E1
1.145546554E1,3.689677277E0,-8.549171906E0,1.670825500E0,9.460111867E0
1.146542554E1,4.100722504E0,-9.060658264E0,5.508544922E-2,9.945576285E0
1.147538654E1,2.620450745E0,-9.655670929E0,-2.644101562E0,1.034843062E1
1.148534654E1,2.326312408E0,-9.817933502E0,-1.475481720E0,1.019708752E1
1.149530754E1,2.872376862E0,-1.024783951E1,4.314028931E-1,1.065151970E1
1.150526754E1,2.531535645E0,-1.018452118E1,6.081852722E-1,1.051204232E1
1.151522854E1,1.909129944E0,-9.896071014E0,4.114942932E-1,1.008693840E1
1.152518854E1,1.669777679E0,-9.555229797E0,4.568499756E-1,9.710781940E0
1.153514954E1,1.742676086E0,-9.330996094E0,3.685336304E-1,9.499485517E0
1.154511054E1,2.651585999E0,-9.697434082E0,8.487350464E-2,1.005377241E1
1.155507054E1,3.253933411E0,-1.007479935E1,1.916015625E-1,1.058897425E1
1.156503154E1,3.687132568E0,-1.030442184E1,2.242337036E-1,1.094652168E1
1.157499154E1,3.617377625E0,-1.070588699E1,-3.504212952E-1,1.130593792E1
1.158495254E1,2.777174835E0,-1.031355286E1,-7.821235657E-1,1.070951866E1
1.159491254E1,2.164798279E0,-9.499844971E0,-7.583230591E-1,9.772842980E0
1.160487354E1,1.917362823E0,-9.024433594E0,-5.304968262E-1,9.241109715E0
1.161483454E1,2.502496033E0,-8.654253387E0,2.128573608E-1,9.011320455E0
1.162479454E1,2.627037048E0,-8.182135162E0,1.275048523E0,8.687600831E0
1.163475554E1,2.739004211E0,-8.406368866E0,1.837279358E0,9.030214672E0
1.164471554E1,2.696941681E0,-8.443940735E0,1.410217438E0,8.975652778E0
1.165467692E1,1.993853760E0,-8.155191193E0,1.099164276E0,8.467039525E0
1.166463692E1,1.761686554E0,-8.044720917E0,7.557783508E-1,8.269962216E0
1.167459792E1,2.033670959E0,-9.289981384E0,8.008346558E-2,9.510309409E0
1.168455892E1,1.825603638E0,-8.880732422E0,-4.134402466E-1,9.075856424E0
1.169451892E1,2.022144928E0,-8.987759857E0,-9.566606140E-1,9.261970465E0
1.170447992E1,2.557880859E0,-9.544152832E0,-8.020321655E-1,9.913468786E0
1.171443992E1,2.996768188E0,-1.080632812E1,-5.264552307E-1,1.122650891E1
1.172440092E1,3.066223755E0,-1.193572952E1,-7.894583130E-1,1.234854695E1
1.173436192E1,2.741548920E0,-1.139685013E1,-1.407223663E0,1.180612391E1
1.174432192E1,2.634820862E0,-1.004605911E1,-1.813628540E0,1.054299925E1
1.175428292E1,2.528691559E0,-9.388626251E0,-1.784139862E0,9.885531798E0
1.176424292E1,2.419418793E0,-9.339378662E0,-1.305435333E0,9.735591533E0
1.177420392E1,3.570674744E0,-9.182953949E0,-3.948788452E-1,9.860643521E0
1.178416392E1,3.606001282E0,-8.677754517E0,1.745370483E-1,9.398783532E0
1.179412492E1,2.958148499E0,-8.569978638E0,5.825885010E-1,9.084854746E0
1.180408592E1,1.652264099E0,-8.719966736E0,3.510200500E-1,8.882061225E0
1.181404592E1,1.414109344E0,-8.775052185E0,5.254074097E-2,8.888419804E0
1.182400692E1,2.222578125E0,-8.052953796E0,-1.266366577E-1,8.354995824E0
1.183396692E1,2.592309265E0,-8.468938751E0,-8.770262146E-1,8.900121678E0
1.184392792E1,1.927691345E0,-9.144483948E0,-1.003064117E0,9.399133908E0
1.185388792E1,2.848875732E0,-9.665400696E0,-7.589218140E-2,1.007679628E1
1.186384892E1,3.440445557E0,-9.697733459E0,1.419049072E-1,1.029091040E1
1.187380992E1,3.010539551E0,-9.649234314E0,-9.116043091E-2,1.010838174E1
1.188376992E1,2.054777069E0,-1.001731888E1,-5.367837524E-1,1.023996695E1
1.189373092E1,1.343306580E0,-1.009755203E1,-1.084045715E0,1.024403166E1
1.190369092E1,1.753004608E0,-1.014350647E1,-1.397793274E0,1.038833840E1
1.191365192E1,2.851121063E0,-9.576335907E0,-1.087937622E0,1.005080639E1
1.192361192E1,3.800446930E0,-8.863069153E0,-6.809339905E-1,9.667526197E0
1.193357292E1,3.299289093E0,-8.770411835E0,-5.912704468E-1,9.389091171E0
1.194353392E1,2.669548645E0,-8.508456573E0,-1.190324707E0,8.996510220E0
1.195349392E1,2.661166077E0,-9.115594025E0,-1.060245209E0,9.555102261E0
1.196345492E1,1.620979156E0,-9.752968597E0,7.158114624E-1,9.912636175E0
1.197341492E1,-7.099736023E-1,-1.068268524E1,1.461560669E0,1.080555348E1
1.198337592E1,-5.804928589E-1,-1.113639175E1,-2.321672058E-1,1.115392733E1
1.199333592E1,7.336244202E-1,-1.064571213E1,-2.023192749E0,1.086106350E1
1.200329692E1,2.223925323E0,-9.726024628E0,-2.747386780E0,1.034840727E1
1.201325792E1,3.820654907E0,-9.325906677E0,-2.948269043E0,1.050058235E1
1.202321792E1,4.845872955E0,-8.983269196E0,-2.658022614E0,1.054735485E1
1.203317892E1,5.086123352E0,-8.538993073E0,-2.022893372E0,1.014273883E1
1.204313892E1,3.967948608E0,-9.104666748E0,-1.393452301E0,1.002902199E1
1.205309992E1,2.692151642E0,-1.020787262E1,-8.990304565E-1,1.059512150E1
1.206305992E1,2.326911163E0,-1.046683411E1,-9.226812744E-1,1.076199203E1
1.207302092E1,2.561323700E0,-1.001477417E1,-1.413660278E0,1.043333677E1
1.208298192E1,3.059188385E0,-1.015563126E1,2.350112915E-2,1.060641467E1
1.209294192E1,2.625839539E0,-9.542955322E0,1.824256439E0,1.006434007E1
1.210290292E1,2.386936340E0,-8.596323853E0,1.993105316E0,9.141483341E0
1.211286292E1,2.696791992E0,-7.886200562E0,1.194366302E0,8.419700542E0
1.212282392E1,2.012564850E0,-8.262218628E0,-4.385879517E-1,8.515106184E0
1.213278392E1,2.060764618E0,-8.888216858E0,-2.484683075E0,9.456257172E0
1.214274492E1,2.210303650E0,-9.459279327E0,-3.748804321E0,1.041234563E1
1.215270592E1,2.515069885E0,-9.651030579E0,-3.771706696E0,1.066272663E1
1.216266592E1,2.479443970E0,-9.924362183E0,-2.867437134E0,1.062369064E1
1.217262692E1,2.281854858E0,-1.028241760E1,-1.691033478E0,1.066745366E1
1.218258692E1,2.881058807E0,-9.962832184E0,-6.402186584E-1,1.039078461E1
1.219254792E1,3.439397736E0,-9.086554413E0,-6.870712280E-2,9.715948155E0
1.220250792E1,2.494861908E0,-9.373208313E0,-8.506809998E-1,9.736787365E0
1.221246892E1,2.356100464E0,-9.269324341E0,-1.278940430E0,9.649210939E0
1.222242992E1,2.544558563E0,-8.934770050E0,-8.428971863E-1,9.328202924E0
1.223238992E1,2.324965210E0,-9.382189636E0,-5.150788879E-1,9.679682425E0
1.224235092E1,1.753902740E0,-9.587712250E0,-7.176077271E-1,9.773196092E0
1.225231092E1,1.443448334E0,-9.613907776E0,-1.020877075E0,9.775119223E0
1.226227192E1,1.275647278E0,-1.024005569E1,-1.032552795E0,1.037073681E1
1.227223192E1,1.221909027E0,-1.058374100E1,-1.001716919E0,1.070103135E1
1.228219292E1,1.733994141E0,-9.927056580E0,-8.875044250E-1,1.011636556E1
1.229215392E1,2.540067902E0,-9.219477997E0,-6.815327454E-1,9.587241854E0
1.230211392E1,2.682421875E0,-9.234297180E0,-8.973838806E-1,9.657791122E0
1.231207492E1,2.488125916E0,-9.136849823E0,-1.294657745E0,9.557663623E0
1.232203492E1,2.164648590E0,-8.965007172E0,-1.987117767E0,9.434282915E0
1.233199592E1,1.927541656E0,-9.021140442E0,-2.462678833E0,9.547836338E0
1.234195592E1,1.494192810E0,-9.376651154E0,-2.207908630E0,9.748284953E0
1.235191692E1,8.744815063E-1,-9.269623718E0,-1.772913208E0,9.478072749E0
1.236187792E1,1.311273193E0,-8.528963928E0,-1.077309723E0,8.696163483E0
1.237183792E1,2.107916565E0,-8.611143036E0,-3.492237854E-1,8.872263177E0
1.238179892E1,2.540816345E0,-9.117090912E0,1.212478638E-1,9.465294261E0
1.239175892E1,2.601589966E0,-9.464368744E0,6.376739502E-2,9.815631022E0
1.240171992E1,2.489622803E0,-9.708810425E0,-3.707789612E-1,1.002979056E1
1.241167992E1,2.475402374E0,-9.766889648E0,-1.508113861E0,1.018794178E1
1.242164092E1,2.477947083E0,-9.742340698E0,-2.615061951E0,1.038710610E1
1.243160192E1,2.203867035E0,-9.791288910E0,-2.859503632E0,1.043566622E1
1.244156192E1,2.078128510E0,-9.586814117E0,-2.248174896E0,1.006379220E1
1.245152292E1,2.918181610E0,-9.141190796E0,-1.120120697E0,9.660839687E0
1.246148292E1,2.646945648E0,-9.266330566E0,4.939727783E-3,9.636971922E0
1.247144392E1,1.873354340E0,-9.740245056E0,-9.789642334E-2,9.919244626E0
1.248140392E1,1.702110443E0,-9.461824036E0,-1.068927155E0,9.672946775E0
1.249136492E1,1.972298584E0,-9.571246490E0,-1.606609039E0,9.903530365E0
1.250132492E1,1.572480011E0,-9.570048981E0,-1.906734924E0,9.884036066E0
1.251128592E1,1.428030396E0,-9.654174042E0,-1.967209167E0,9.955514007E0
1.252124692E1,1.969005432E0,-9.431137848E0,-1.651515656E0,9.775011379E0
1.253120692E1,2.143692169E0,-9.367669830E0,-1.473386078E0,9.722115032E0
1.254116792E1,2.145787811E0,-9.442663879E0,-1.358724518E0,9.778263587E0
1.255112792E1,2.457888794E0,-9.634415131E0,-1.267115021E0,1.002341023E1
1.256108892E1,2.507585449E0,-9.809850311E0,-1.569486237E0,1.024619124E1
1.257104892E1,2.192640381E0,-9.661059723E0,-2.029779053E0,1.011255407E1
1.258100992E1,1.655257874E0,-9.376800842E0,-2.243684235E0,9.782555474E0
1.259097092E1,1.189576263E0,-9.585766296E0,-2.426753540E0,9.959474882E0
1.260093092E1,1.565294952E0,-9.497000885E0,-2.486629028E0,9.941151745E0
1.261089192E1,2.238295441E0,-8.851094055E0,-2.060315552E0,9.359312615E0
1.262085192E1,2.966680756E0,-8.257727966E0,-1.154100037E0,8.850040269E0
1.263081292E1,3.377576294E0,-8.328381042E0,-3.814068604E-1,8.995300084E0
1.264077292E1,3.182831268E0,-8.833281097E0,-2.639012146E-1,9.392918273E0
1.265073379E1,2.801873474E0,-9.345366211E0,-1.651066589E-1,9.757746912E0
1.266069479E1,2.259251862E0,-1.027792694E1,-4.808001709E-1,1.053428545E1
1.267065479E1,2.190544739E0,-1.063852707E1,-1.419198761E0,1.095403440E1
1.268061579E1,2.432292023E0,-1.013063324E1,-1.947150879E0,1.059892310E1
1.269057579E1,2.973716125E0,-9.302405548E0,-2.214794312E0,1.001414252E1
1.270053679E1,3.221600647E0,-8.851094055E0,-2.327210541E0,9.702395869E0
1.271049679E1,3.133583679E0,-8.904233551E0,-1.961221619E0,9.641115705E0
1.272045779E1,2.457439728E0,-9.003327484E0,-1.547332306E0,9.460082086E0
1.273041779E1,1.994901581E0,-9.216633911E0,-1.364263000E0,9.528231027E0
1.274037879E1,1.886377258E0,-9.230405273E0,-1.507066040E0,9.540966865E0
1.275033979E1,1.247206421E0,-9.233099670E0,-1.504371643E0,9.437626154E0
1.276029979E1,5.287005615E-1,-9.677974548E0,-1.357227631E0,9.786970036E0
1.277026079E1,5.566923523E-1,-1.012524445E1,-6.566844177E-1,1.016177720E1
1.278022079E1,1.718426514E0,-9.618847504E0,-1.856140137E-2,9.771159681E0
1.279018179E1,2.849923553E0,-8.772956543E0,-4.191284180E-3,9.224253267E0
1.280014179E1,2.872526550E0,-8.822204132E0,-3.614982605E-1,9.285115806E0
1.281010279E1,2.711311798E0,-8.844058685E0,-7.574249268E-1,9.281286453E0
1.282006279E1,2.686762848E0,-9.401050415E0,-6.357279968E-1,9.798091324E0
1.283002379E1,2.256856842E0,-1.030831375E1,-7.547305298E-1,1.057943067E1
1.283998479E1,1.631157990E0,-1.029229706E1,-1.421593781E0,1.051727075E1
1.284994479E1,1.101559296E0,-9.695188751E0,-2.797382812E0,1.015063882E1
1.285990579E1,1.569037170E0,-9.165590057E0,-3.381617889E0,9.894708601E0
1.286986579E1,2.241139526E0,-9.707612915E0,-2.582878876E0,1.029231355E1
1.287982679E1,2.428699493E0,-1.029978149E1,-1.571432190E0,1.069829328E1
1.288978679E1,2.947221222E0,-9.679022369E0,-9.342073059E-1,1.016082331E1
1.289974779E1,2.346520386E0,-9.387877808E0,-8.806187439E-1,9.716681379E0
1.290970879E1,1.869163055E0,-8.835825806E0,-2.513273621E-1,9.034863233E0
1.291966879E1,2.009271698E0,-8.485105133E0,3.516188049E-1,8.726844657E0
1.292962979E1,2.129471741E0,-8.814869385E0,6.331832886E-2,9.068659293E0
1.293958979E1,2.322719879E0,-9.151219940E0,-6.373745728E-1,9.462880131E0
1.294955079E1,2.240241394E0,-9.259295197E0,-1.595831451E0,9.659187702E0
1.295951079E1,1.764231262E0,-9.413923645E0,-2.659818878E0,9.940276998E0
1.296947179E1,1.825603638E0,-9.548643494E0,-2.981949005E0,1.016864991E1
1.297943179E1,2.379302216E0,-9.433383179E0,-2.402503967E0,1.002106893E1
1.298939279E1,2.862647095E0,-9.402547302E0,-1.779798889E0,9.988509811E0
1.299935379E1,3.153941345E0,-9.562265167E0,-1.272653503E0,1.014908410E1
1.300931379E1,3.001857605E0,-1.000130219E1,-1.020128632E0,1.049179951E1
1.301927479E1,2.245929565E0,-1.083581680E1,-9.547146606E-1,1.110723213E1
1.302923479E1,1.512005768E0,-1.131721573E1,-9.231303406E-1,1.145502959E1
1.303919579E1,1.695673828E0,-1.096260315E1,-1.157093811E0,1.115315398E1
1.304915579E1,2.646646271E0,-9.964778137E0,-1.232387238E0,1.038365630E1
1.305911679E1,3.487148438E0,-9.125922546E0,-9.238787842E-1,9.813063668E0
1.306907679E1,3.738475800E0,-9.056916046E0,-7.321275330E-1,9.825474049E0
1.307903779E1,3.435206451E0,-8.912765808E0,-5.595364380E-1,9.568234881E0
1.308899879E1,2.888842621E0,-8.921747131E0,-2.947370911E-1,9.382422582E0
1.309895879E1,2.272873535E0,-8.928034058E0,-3.350033569E-1,9.218892205E0
1.310891979E1,2.545007629E0,-8.968749390E0,-4.769082642E-1,9.335039954E0
1.311887979E1,3.037782898E0,-8.912167053E0,-8.852590942E-1,9.457194625E0
1.312884079E1,2.714155884E0,-9.080117798E0,-1.617536316E0,9.614135693E0
1.313880079E1,2.126777344E0,-9.252110138E0,-2.331701202E0,9.775559031E0
1.314876179E1,1.928739166E0,-9.246122589E0,-2.383792877E0,9.741318503E0
1.315872279E1,1.671424255E0,-9.316625977E0,-2.063908081E0,9.687770393E0
1.316868279E1,1.827998657E0,-9.339378662E0,-1.328936462E0,9.608935685E0
1.317864379E1,2.286644897E0,-9.125623169E0,-6.869215393E-1,9.432794088E0
1.318860379E1,2.634222107E0,-9.087602234E0,-3.935316467E-1,9.469873686E0
1.319856479E1,2.781815186E0,-9.429341583E0,-2.704875183E-1,9.834843258E0
1.320852479E1,3.045117645E0,-9.435778198E0,-4.360432434E-1,9.924554670E0
1.321848579E1,3.012635193E0,-9.670490112E0,-7.044351196E-1,1.015335307E1
1.322844579E1,2.601589966E0,-1.009395950E1,-9.798623657E-1,1.046978601E1
1.323840679E1,2.215243378E0,-1.006462051E1,-1.459614716E0,1.040837953E1
1.324836779E1,2.267784119E0,-9.681716766E0,-1.820963287E0,1.010912418E1
1.325832779E1,2.112257538E0,-9.360185394E0,-1.835333405E0,9.769501074E0
1.326828879E1,1.969005432E0,-9.036109314E0,-1.861079865E0,9.433550349E0
1.327824879E1,1.920206909E0,-8.808732147E0,-1.693578186E0,9.173285327E0
1.328820979E1,1.733545074E0,-8.703500977E0,-1.634451141E0,9.023720868E0
1.329816979E1,1.453776855E0,-9.127868500E0,-1.377884674E0,9.345053059E0
1.330813079E1,1.563199310E0,-9.370214539E0,-9.701325989E-1,9.549118799E0
1.331809079E1,1.766775970E0,-9.729168091E0,-8.663983154E-1,9.926170214E0
1.332805179E1,1.754950562E0,-9.802365875E0,-8.454418945E-1,9.994048240E0
1.333801279E1,1.933529205E0,-9.661957855E0,-1.155596924E0,9.921056851E0
1.334797279E1,2.126028900E0,-9.918075256E0,-1.410367126E0,1.024096436E1
1.335793379E1,2.594704285E0,-9.655670929E0,-1.467248840E0,1.010531002E1
1.336789379E1,2.766846313E0,-9.498647461E0,-1.362915802E0,9.986855441E0
1.337785479E1,2.505938873E0,-9.895771637E0,-1.194366302E0,1.027776906E1
1.338781479E1,2.562970276E0,-9.780661011E0,-1.034648438E0,1.016369243E1
1.339777579E1,2.586621094E0,-9.379944305E0,-8.940907288E-1,9.771047134E0
1.340773579E1,2.285597076E0,-8.968749390E0,-1.096020813E0,9.320068735E0
1.341769679E1,2.080074463E0,-8.451275482E0,-1.528770905E0,8.836736248E0
1.342765779E1,2.034718781E0,-8.275540924E0,-1.749112701E0,8.699658231E0
1.343761779E1,1.977837067E0,-8.902287598E0,-1.904190216E0,9.316034796E0
1.344757879E1,1.848805389E0,-9.854756927E0,-1.799258423E0,1.018683692E1
1.345753879E1,2.046843567E0,-1.013916550E1,-1.279389496E0,1.042252767E1
1.346749979E1,2.159259796E0,-1.013332764E1,-6.668632507E-1,1.038226557E1
1.347745979E1,2.230361938E0,-9.863289185E0,-6.929090881E-1,1.013603033E1
1.348742079E1,2.618504791E0,-9.111402740E0,-1.228944397E0,9.559525698E0
1.349738179E1,2.965333557E0,-8.699908447E0,-1.869312744E0,9.379549042E0
1.350734179E1,2.171833649E0,-9.081464996E0,-2.248474274E0,9.604452324E0
1.351730279E1,1.729503479E0,-9.574689331E0,-2.150877228E0,9.964543688E0
1.352726279E1,1.896855469E0,-9.697583771E0,-1.750310211E0,1.003517700E1
1.353722379E1,2.488574982E0,-9.303153992E0,-1.275347900E0,9.714329205E0
1.354718379E1,3.178340607E0,-9.013656006E0,-8.505313110E-1,9.595376340E0
1.355714479E1,3.121907959E0,-9.403595123E0,-7.053332520E-1,9.933348154E0
1.356710479E1,2.728226624E0,-1.010578491E1,-6.747967529E-1,1.048930216E1
1.357706579E1,1.705702972E0,-1.065484314E1,-1.055604858E0,1.084202041E1
1.358702679E1,1.487157440E0,-1.041369461E1,-1.285975800E0,1.059766042E1
1.359698679E1,2.060764618E0,-9.623188477E0,-1.072070618E0,9.899588005E0
1.360694779E1,2.757864990E0,-8.764124908E0,-1.017134857E0,9.243931416E0
1.361690779E1,2.572849731E0,-8.577313385E0,-1.304986267E0,9.049466824E0
1.362686879E1,2.023492126E0,-8.687633972E0,-1.664688263E0,9.074177177E0
1.363682879E1,2.045496368E0,-8.659642181E0,-1.984872437E0,9.116642841E0
1.364678979E1,2.616109772E0,-8.062683563E0,-2.334395599E0,8.792058882E0
1.365674917E1,3.315455475E0,-8.284971313E0,-2.254761200E0,9.204180721E0
1.366671017E1,3.318000183E0,-9.386231232E0,-2.013163605E0,1.015693308E1
1.367667117E1,2.711012421E0,-1.065409470E1,-2.109114075E0,1.119409149E1
1.368663117E1,2.579436035E0,-1.107292374E1,-2.131417694E0,1.156745744E1
1.369659217E1,2.733615417E0,-1.052236862E1,-1.843865662E0,1.102690960E1
1.370655217E1,2.909799042E0,-9.603130188E0,-1.646725616E0,1.016851735E1
1.371651317E1,2.769540710E0,-8.702153778E0,-1.420695648E0,9.242089171E0
1.372647317E1,1.969155121E0,-8.800050201E0,-1.519490204E0,9.144796658E0
1.373643417E1,1.164578247E0,-9.247918854E0,-1.753303986E0,9.484425153E0
1.374639417E1,9.621990967E-1,-9.432035980E0,-1.430874481E0,9.588353958E0
1.375635517E1,1.822609863E0,-9.367969208E0,-8.467890930E-1,9.581117135E0
1.376631617E1,2.525847473E0,-9.475146332E0,-4.489164734E-1,9.816304267E0
1.377627617E1,2.665507050E0,-9.370663605E0,-8.114625549E-1,9.776130917E0
1.378623717E1,2.871478729E0,-9.062005463E0,-1.333726501E0,9.599174937E0
1.379619717E1,2.812950439E0,-9.047785034E0,-1.882185974E0,9.660110157E0
1.380615817E1,2.349214783E0,-9.175319824E0,-2.684816895E0,9.844467773E0
1.381611817E1,1.678908691E0,-9.397757263E0,-3.292253723E0,1.009829246E1
1.382607917E1,9.824070740E-1,-9.619595947E0,-3.206182709E0,1.018731355E1
1.383603917E1,1.226549377E0,-1.011162277E1,-2.807861023E0,1.056567187E1
1.384600017E1,2.227218475E0,-9.515562286E0,-1.638642426E0,9.909166300E0
1.385596117E1,3.047662354E0,-9.504784698E0,-1.344953156E0,1.007164718E1
1.386592117E1,2.420466614E0,-1.018212616E1,-2.081571350E0,1.067086178E1
1.387588217E1,1.977388000E0,-9.900112610E0,-1.463207245E0,1.020114055E1
1.388584217E1,1.733694763E0,-9.312285004E0,-5.399272156E-1,9.487669415E0
1.389580317E1,1.808988190E0,-8.647667084E0,-1.996847534E-1,8.837106894E0
1.390576317E1,2.096390533E0,-8.423732758E0,-3.873944092E-1,8.689315351E0
1.391572417E1,1.938319244E0,-8.736432495E0,-8.550219727E-1,8.989627179E0
1.392568417E1,1.695973206E0,-8.959917755E0,-1.209185486E0,9.198835841E0
1.393564517E1,1.843715973E0,-9.135352936E0,-1.426234131E0,9.428048878E0
1.394560617E1,2.033970337E0,-9.485624542E0,-1.442400513E0,9.807885987E0
1.395556617E1,2.381547546E0,-9.353898468E0,-1.388063507E0,9.751610409E0
1.396552717E1,2.702031097E0,-9.217831421E0,-1.609752502E0,9.739645336E0
1.397548717E1,2.735860748E0,-9.611812134E0,-1.783690796E0,1.015152301E1
1.398544817E1,2.217488708E0,-9.806706848E0,-2.158511353E0,1.028338109E1
1.399540817E1,2.492466888E0,-9.863438873E0,-2.086660767E0,1.038527663E1
1.400536917E1,2.368674316E0,-9.836794281E0,-1.686692505E0,1.025758604E1
1.401532917E1,2.069446564E0,-9.520651703E0,-1.089135132E0,9.803654077E0
1.402529017E1,2.030677185E0,-9.341174927E0,-9.532177734E-1,9.606759233E0
1.403525117E1,2.467618561E0,-9.067244568E0,-1.560355225E0,9.525690203E0
1.404521117E1,2.655627594E0,-8.662486267E0,-2.573897552E0,9.418915800E0
1.405517217E1,2.394869843E0,-8.870852966E0,-3.427871704E0,9.807024948E0
1.406513217E1,1.873653717E0,-9.789792023E0,-3.278632050E0,1.049285634E1
1.407509317E1,2.085762634E0,-9.999805298E0,-1.689386902E0,1.035376936E1
1.408505317E1,2.361938324E0,-9.553732910E0,-4.685256958E-2,9.841481612E0
1.409501417E1,1.703008575E0,-9.309590607E0,9.294172668E-1,9.509602091E0
1.410497517E1,1.529818726E0,-9.189540253E0,1.218765564E0,9.395391684E0
1.411493517E1,1.751807098E0,-9.128766632E0,3.008743286E-2,9.295381304E0
1.412489617E1,2.052681427E0,-9.327403564E0,-1.678010559E0,9.696890106E0
1.413485617E1,1.937720490E0,-9.608668671E0,-2.598446503E0,1.014067052E1
1.414481717E1,1.736538849E0,-9.554481354E0,-3.366050262E0,1.027783905E1
1.415477717E1,2.163451080E0,-9.549541626E0,-3.009342041E0,1.024355433E1
1.416473817E1,2.642305298E0,-9.573192444E0,-1.983525238E0,1.012729792E1
1.417469817E1,2.749183044E0,-9.276210022E0,-8.087681580E-1,9.708768496E0
1.418465917E1,2.665357361E0,-9.269923096E0,-2.496807861E-1,9.648727613E0
1.419462017E1,2.371967468E0,-9.346713409E0,-4.460723877E-1,9.653303155E0
1.420458017E1,2.352957001E0,-9.178463287E0,-8.843609619E-1,9.516443100E0
1.421454117E1,2.595752106E0,-9.223669281E0,-1.416055298E0,9.686032036E0
1.422450117E1,2.946323090E0,-9.500892792E0,-2.416724396E0,1.023661762E1
1.423446217E1,3.208727417E0,-9.774523773E0,-2.964734802E0,1.070639524E1
1.424442217E1,3.354673920E0,-1.020278320E1,-2.380050659E0,1.100069377E1
1.425438317E1,2.949017487E0,-9.947863312E0,-1.269809418E0,1.045318634E1
1.426434317E1,1.456171875E0,-9.525142365E0,-1.661544800E-2,9.635821172E0
1.427430417E1,4.607418823E-1,-9.334438934E0,8.348139954E-1,9.383013786E0
1.428426517E1,5.060975647E-1,-9.626182251E0,5.544470215E-1,9.655409415E0
1.429422517E1,1.641636200E0,-9.324858856E0,-8.761280823E-1,9.508709824E0
1.430418617E1,2.262994080E0,-8.900491333E0,-2.204465790E0,9.444551741E0
1.431414617E1,2.182910614E0,-8.756041718E0,-2.978057098E0,9.502746413E0
1.432410717E1,2.254162445E0,-9.191336517E0,-2.647394714E0,9.827034857E0
1.433406717E1,2.035616913E0,-9.504934387E0,-1.761536865E0,9.878791730E0
1.434402817E1,1.687141571E0,-9.516759796E0,-7.708969116E-1,9.695846830E0
1.435398917E1,2.399959259E0,-9.252858582E0,-9.520202637E-2,9.559511483E0
1.436394917E1,3.065924377E0,-9.378746796E0,5.134323120E-2,9.867290402E0
1.437391017E1,2.945275269E0,-9.210945740E0,-5.066963196E-1,9.683641308E0
1.438387017E1,2.420167236E0,-9.259444885E0,-1.460961914E0,9.681370706E0
1.439383117E1,2.128573608E0,-9.332343292E0,-2.181862793E0,9.817534425E0
1.440379117E1,1.596729584E0,-9.640252991E0,-2.202370148E0,1.001670891E1
1.441375217E1,1.101409607E0,-1.027074188E1,-1.793719940E0,1.048421066E1
1.442371217E1,1.763033752E0,-1.022673340E1,-1.446741486E0,1.047794946E1
1.443367317E1,2.410736847E0,-1.083656525E1,-5.685177612E-1,1.111602496E1
1.444363417E1,3.181933136E0,-1.092203751E1,1.851649475E-1,1.137760466E1
1.445359417E1,4.112847290E0,-9.545500031E0,-2.865042114E-1,1.039779632E1
1.446355517E1,4.720433807E0,-8.884474640E0,-6.689588928E-1,1.008285133E1
1.447351517E1,1.981279907E0,-1.077698914E1,-8.231382751E-1,1.098847221E1
1.448347617E1,6.738986206E-1,-9.776170349E0,-1.446292419E0,9.905524106E0
1.449343617E1,6.530918884E-1,-8.805139618E0,-1.987117767E0,9.050174016E0
1.450339717E1,3.818559265E-1,-9.026080170E0,-2.084265747E0,9.271467030E0
1.451335817E1,8.900491333E-1,-9.040150909E0,-1.978735199E0,9.296876299E0
1.452331817E1,2.105970612E0,-8.859626312E0,-1.531614990E0,9.234388723E0
1.453327917E1,2.540367279E0,-8.380323029E0,-1.499731293E0,8.884394967E0
1.454323917E1,3.683540039E0,-7.595355377E0,-1.595681763E0,8.590930730E0
1.455320017E1,2.983745270E0,-8.306676178E0,-1.588496704E0,8.968106084E0
1.456316017E1,1.682201843E0,-9.966574402E0,-1.097368011E0,1.016693783E1
1.457312117E1,1.466051331E0,-1.080408279E1,-5.810916138E-1,1.091857037E1
1.458308117E1,1.525028687E0,-1.119252502E1,-3.302133179E-1,1.130076855E1
1.459304217E1,2.161954193E0,-1.032612671E1,-6.015989685E-1,1.056715951E1
1.460300317E1,3.323838043E0,-9.119785309E0,-1.144969025E0,9.773911064E0
1.461296317E1,3.261717224E0,-9.067843323E0,-1.293909302E0,9.723105628E0
1.462292417E1,1.043031006E0,-9.215586090E0,-9.541159058E-1,9.323372664E0
1.463288417E1,-2.335144043E-1,-9.174421692E0,-8.693920898E-1,9.218480621E0
1.464284517E1,3.574866028E0,-9.351054382E0,-9.638456726E-1,1.005737956E1
1.465280479E1,1.872156830E0,-1.010788055E1,-5.369334412E-1,1.029380969E1
1.466276579E1,1.949246521E0,-1.038630157E1,-8.315208435E-1,1.060029477E1
1.467272679E1,2.260748749E0,-9.774374084E0,-1.488953705E0,1.014230530E1
1.468268679E1,1.919308777E0,-8.931177521E0,-1.602866821E0,9.274635310E0
1.469264779E1,1.511407013E0,-8.986412659E0,-1.323248291E0,9.208200132E0
1.470260779E1,1.734742584E0,-9.499844971E0,-7.520361328E-1,9.686172859E0
1.471256879E1,1.681303711E0,-9.876312103E0,-6.842271423E-1,1.004173739E1
1.472252879E1,2.113904114E0,-1.076456497E1,-1.864373016E0,1.112745867E1
1.473248979E1,2.335443420E0,-1.061293030E1,-2.244282990E0,1.109618816E1
1.474245079E1,2.092348938E0,-1.023212219E1,-2.348616028E0,1.070468336E1
1.475241079E1,2.344574432E0,-9.525890808E0,-1.760039978E0,9.966813216E0
1.476237179E1,1.951192474E0,-8.807983704E0,-8.494834900E-1,9.061421036E0
1.477233179E1,1.476529541E0,-8.975186005E0,-6.327342224E-1,9.117809819E0
1.478229279E1,2.178120575E0,-1.002615051E1,-1.058748322E0,1.031449714E1
1.479225279E1,3.370690613E0,-1.015158966E1,-1.514700165E0,1.080327008E1
1.480221379E1,3.598666534E0,-9.592202911E0,-1.817819824E0,1.040505773E1
1.481217479E1,1.280886383E0,-9.175918579E0,-2.255060577E0,9.535378855E0
1.482213479E1,1.950444031E0,-9.555678864E0,-2.845582581E0,1.015935877E1
1.483209579E1,1.561253357E0,-8.789122925E0,-2.182760925E0,9.189702884E0
1.484205579E1,1.472637634E0,-8.150700531E0,-1.666484528E0,8.448653823E0
1.485201679E1,2.176923065E0,-7.661218414E0,-1.278940430E0,8.066532728E0
1.486197679E1,2.780467987E0,-7.686066742E0,-3.939807129E-1,8.183021752E0
1.487193779E1,2.643502808E0,-8.235124969E0,-2.245330811E-3,8.649011238E0
1.488189879E1,1.836680603E0,-8.817863159E0,-2.842588806E-1,9.011598606E0
1.489185879E1,1.636995850E0,-8.776848450E0,-6.524931335E-1,8.952014936E0
1.490181979E1,1.063089294E0,-9.649833069E0,-1.925745392E0,9.897369975E0
1.491177979E1,2.350112915E-2,-1.057550812E1,-2.424208832E0,1.084982547E1
1.492174079E1,2.320175171E-2,-1.007210495E1,-2.352358246E0,1.034318257E1
1.493170079E1,1.376387787E0,-9.559720459E0,-2.382295990E0,9.947765215E0
1.494166179E1,2.037263489E0,-1.000594254E1,-1.875000916E0,1.038195343E1
1.495162279E1,2.652783508E0,-9.576036530E0,-1.457519073E0,1.004301239E1
1.496158279E1,2.911744995E0,-9.040899353E0,-1.876797180E0,9.681863854E0
1.497154379E1,3.241209869E0,-8.554261322E0,-2.215542755E0,9.412197293E0
1.498150379E1,3.279679871E0,-9.132059784E0,-2.723735962E0,1.007817213E1
1.499146479E1,3.243904266E0,-9.235345001E0,-1.897603912E0,9.970727796E0
1.500142479E1,2.719095612E0,-8.551417236E0,-1.758842468E-1,8.975029413E0
1.501138579E1,3.111429749E0,-7.714657288E0,1.229393463E0,8.408825152E0
1.502134679E1,2.781515808E0,-7.494764557E0,2.466421051E0,8.366095789E0
1.503130679E1,2.416125641E0,-7.007677460E0,2.757116547E0,7.908659693E0
1.504126779E1,1.655108185E0,-7.490722961E0,2.400857391E0,8.038310133E0
1.505122779E1,6.620732117E-1,-8.268655243E0,1.742676086E0,8.476197285E0
1.506118879E1,1.751507721E0,-8.584199066E0,1.194665680E0,8.842142217E0
1.507114879E1,2.781665497E0,-9.413624268E0,4.649331665E-1,9.827011124E0
1.508110979E1,2.699037323E0,-9.293723602E0,-5.186714172E-1,9.691600534E0
1.509107079E1,2.718347168E0,-1.082429077E1,-1.860930176E0,1.131449262E1
1.510103079E1,2.939437408E0,-1.119881195E1,-2.354154510E0,1.181506347E1
1.511099179E1,1.838177490E0,-1.017434235E1,-1.624871063E0,1.046596124E1
1.512095179E1,6.629713440E-1,-9.268575897E0,-6.707551575E-1,9.316434009E0
1.513091279E1,1.460961914E-1,-8.704548798E0,-1.827699280E-1,8.707693076E0
1.514087279E1,-1.034349060E0,-8.753497009E0,-3.207829285E-1,8.820231831E0
1.515083379E1,-2.321821747E0,-9.018745422E0,-3.966751099E-1,9.321264740E0
1.516079479E1,-3.321742401E0,-8.989556122E0,-8.283773804E-1,9.619371130E0
1.517075479E1,-2.618654480E0,-8.931177521E0,-2.139650574E0,9.549941768E0
1.518071579E1,-1.491947479E0,-9.128766632E0,-3.068618774E0,9.745599452E0
1.519067579E1,-1.384770355E0,-8.148155823E0,-2.490221558E0,8.631989090E0
1.520063679E1,-9.059161377E-1,-7.268884277E0,-9.870474243E-1,7.391320944E0
1.521059779E1,-1.285826111E0,-7.801925812E0,2.896476746E-1,7.912476915E0
1.522055779E1,-2.404749298E0,-8.963360596E0,1.098415833E0,9.345114750E0
1.523051879E1,-3.050207062E0,-9.501042480E0,1.077010345E0,1.003660912E1
1.524047879E1,-2.254461823E0,-1.078821579E1,-3.282673645E-1,1.102614881E1
1.525043979E1,-6.960525513E-1,-1.291110123E1,-1.740580444E0,1.304648015E1
1.526039979E1,1.070274353E-1,-1.428344742E1,-2.380799103E0,1.448090223E1
1.527036079E1,1.391057281E0,-1.560235474E1,-2.063009949E0,1.579951024E1
1.528032179E1,4.301754456E0,-1.594154938E1,-9.842033386E-1,1.654106236E1
1.529028179E1,6.730453949E0,-1.472023911E1,-5.087919617E-1,1.619392846E1
1.530024279E1,7.478598175E0,-1.296304321E1,-1.945953369E-3,1.496562474E1
1.531020279E1,6.980733490E0,-1.163739990E1,7.035369873E-3,1.357054774E1
1.532016379E1,4.959935760E0,-1.127395569E1,-1.182540894E0,1.237341677E1
1.533012379E1,1.609453125E0,-1.185579575E1,-1.720372467E0,1.208759337E1
1.534008479E1,-3.821553040E-1,-1.143038040E1,-1.269659729E0,1.150702718E1
1.535004579E1,-1.138682098E0,-1.013677048E1,-1.800755310E-1,1.020211448E1
1.536000579E1,-2.101929016E0,-8.946146393E0,4.930746460E-1,9.202975795E0
1.536996679E1,-2.984194336E0,-7.774383087E0,9.147477722E-1,8.377542104E0
1.537992679E1,-3.225492554E0,-6.597380676E0,1.564247131E0,7.508402166E0
1.538988779E1,-2.277064819E0,-5.716163177E0,2.161056061E0,6.521480580E0
1.539984779E1,-1.101708984E0,-5.710025940E0,2.690804443E0,6.407697517E0
1.540980879E1,-1.121168518E-1,-6.366560669E0,3.345093842E0,7.192726726E0
1.541976879E1,1.253493347E0,-7.835456085E0,4.218228149E0,8.986604829E0
1.542972979E1,2.223476257E0,-1.005818390E1,4.328249359E0,1.117339038E1
1.543969079E1,2.797532501E0,-1.225875778E1,3.230432281E0,1.298225802E1
1.544965079E1,3.065924377E0,-1.385369110E1,1.493294678E0,1.426725546E1
1.545961179E1,3.284469910E0,-1.412971710E1,-3.739224243E-1,1.451125308E1
1.546957179E1,3.623664551E0,-1.239362732E1,-2.025438080E0,1.307039947E1
1.547953279E1,3.169658661E0,-1.011656250E1,-2.596201172E0,1.091475301E1
1.548949279E1,1.954036560E0,-9.063652039E0,-1.595382385E0,9.408150302E0
1.549945379E1,6.914122009E-1,-9.169481964E0,1.466949463E-2,9.195524211E0
1.550941479E1,-4.305047607E-1,-9.096134491E0,1.367556152E0,9.208431292E0
1.551937479E1,-7.164102173E-1,-8.376131744E0,2.307301941E0,8.717595359E0
1.552933579E1,-1.052611084E0,-8.398135986E0,2.551444244E0,8.840053499E0
1.553929579E1,-1.980531464E0,-9.063801727E0,2.258653107E0,9.548639719E0
1.554925679E1,-2.779420166E0,-9.448052673E0,1.784588928E0,1.000877782E1
1.555921679E1,-3.081791382E0,-9.542206879E0,1.457070007E0,1.013282800E1
1.556917779E1,-2.742896118E0,-9.668095093E0,1.419797516E0,1.014945155E1
1.557913879E1,-1.750459900E0,-9.429790649E0,1.442101135E0,9.698696677E0
1.558909879E1,-1.615141296E-1,-8.948391724E0,1.520388336E0,9.078071488E0
1.559905979E1,1.492845612E0,-8.562344513E0,1.911824341E0,8.899292325E0
1.560901979E1,2.317480774E0,-9.349557495E0,2.140848083E0,9.867531252E0
1.561898079E1,2.218686218E0,-1.070888077E1,2.174228668E0,1.115033480E1
1.562894079E1,1.786085815E0,-1.158665543E1,2.008223877E0,1.189426961E1
1.563890179E1,2.049238586E0,-1.248314117E1,1.553469543E0,1.274525245E1
1.564886279E1,2.192939758E0,-1.260873001E1,6.236032104E-1,1.281319391E1
1.565882308E1,1.372645569E0,-1.073253159E1,-8.291258240E-1,1.085167451E1
1.566878408E1,2.030976563E0,-8.551267548E0,-2.167342987E0,9.052426089E0
1.567874408E1,6.544390869E-1,-8.563841400E0,-2.224524078E0,8.872213784E0
1.568870508E1,-5.548960876E-1,-8.491392059E0,-1.300046539E0,8.608238483E0
1.569866508E1,-1.060245209E0,-8.862470398E0,-2.963836670E-2,8.925714531E0
1.570862608E1,-1.415606232E0,-9.820478210E0,1.627565460E0,1.005458615E1
1.571858608E1,-1.458716583E0,-1.074944641E1,2.978955231E0,1.124956117E1
1.572854708E1,-1.354682922E0,-1.190040298E1,3.930975494E0,1.260584489E1
1.573850808E1,-3.058140564E-1,-1.192659851E1,4.600233765E0,1.278668937E1
1.574846808E1,5.995033264E-1,-1.156674683E1,3.882626038E0,1.221572025E1
1.575842908E1,1.271605682E0,-1.132170639E1,1.743873596E0,1.152558509E1
1.576838908E1,2.458337860E0,-1.022972717E1,-4.170327759E-1,1.052922881E1
1.577835008E1,2.789149933E0,-9.157207489E0,-2.197580109E0,9.821566305E0
1.578831008E1,2.035766602E0,-9.393116913E0,-2.745590515E0,9.995661973E0
1.579827108E1,1.427132263E0,-9.633367310E0,-1.835483093E0,9.909968234E0
1.580823208E1,1.673519897E0,-9.828711090E0,-6.053411865E-1,9.988526843E0
1.581819208E1,1.911824341E0,-9.885293427E0,1.601669312E-1,1.006974438E1
1.582815308E1,1.983525238E0,-8.727750549E0,8.894503784E-1,8.994394032E0
1.583811308E1,1.775757294E0,-7.066056061E0,1.525477753E0,7.443758768E0
1.584807408E1,9.530680847E-1,-6.404581604E0,1.229992218E0,6.590894109E0
1.585803408E1,2.130070496E-1,-6.220314789E0,1.185534668E0,6.335864623E0
1.586799508E1,-9.375004578E-1,-6.994953918E0,1.043929138E0,7.134288715E0
1.587795508E1,-1.166224823E0,-7.051386566E0,1.142424316E0,7.237904819E0
1.588791608E1,-5.948629761E-1,-6.488407288E0,1.280437317E0,6.640241774E0
1.589787708E1,-9.859996033E-1,-6.791077881E0,1.485810242E0,7.021293761E0
1.590783708E1,-1.581760712E0,-7.573500824E0,1.753303986E0,7.933092496E0
1.591779808E1,-1.876797180E0,-8.297245789E0,1.890867920E0,8.714472837E0
1.592775808E1,-2.251168671E0,-9.684560852E0,1.628313904E0,1.007521143E1
1.593771908E1,-2.243235168E0,-1.048210236E1,1.334025879E0,1.080213862E1
1.594767908E1,-1.923350372E0,-1.112845825E1,1.071022797E0,1.134411519E1
1.595764008E1,-1.947300568E0,-1.241413467E1,8.937913513E-1,1.259768162E1
1.596760108E1,-1.488205261E0,-1.269285507E1,6.861730957E-1,1.279820918E1
1.597756108E1,-1.140628052E0,-1.263402740E1,6.767427063E-1,1.270345077E1
1.598752208E1,-1.221160583E0,-1.210697342E1,9.002279663E-1,1.220165763E1
1.599748208E1,-1.289268951E0,-1.114537308E1,9.888436890E-1,1.126318637E1
1.600744308E1,-1.477277985E0,-1.058823166E1,1.273551636E0,1.076637979E1
1.601740308E1,-8.915460205E-1,-9.269623718E0,1.454674988E0,9.425330631E0
1.602736408E1,-9.026229858E-2,-8.720565491E0,1.473086700E0,8.844568626E0
1.603732408E1,6.764433289E-1,-9.021739197E0,1.733096008E0,9.211567483E0
1.604728508E1,9.139993286E-1,-9.758956146E0,2.109712830E0,1.002614123E1
1.605724608E1,4.339476013E-1,-1.177870605E1,2.689008179E0,1.208954060E1
1.606720608E1,7.083270264E-1,-1.269345383E1,3.046015778E0,1.307301455E1
1.607716708E1,9.848020935E-1,-1.218331467E1,2.652484131E0,1.250754426E1
1.608712708E1,1.365909576E0,-9.979447632E0,1.104553070E0,1.013287331E1
1.609708808E1,1.591191101E0,-8.519683228E0,-2.080822906E0,8.913288696E0
1.610704808E1,1.135239258E0,-8.816515961E0,-4.426295471E0,9.930348103E0
1.611700908E1,3.833528137E-1,-8.964857483E0,-3.724255371E0,9.715230679E0
1.612697008E1,-4.110452271E-1,-1.073971664E1,-1.539997559E0,1.085735070E1
1.613693008E1,-2.445913696E-1,-1.164458496E1,-3.906875610E-2,1.164721899E1
1.614689108E1,3.300636292E-1,-1.149744095E1,7.577243042E-1,1.152710877E1
1.615685108E1,1.255738678E0,-1.124326950E1,1.162033539E0,1.137270024E1
1.616681208E1,1.893712006E0,-1.023900787E1,1.320853271E0,1.049609836E1
1.617677208E1,1.075962524E0,-9.278904419E0,1.353186035E0,9.438584376E0
1.618673308E1,8.277786255E-2,-9.616602173E0,1.509760437E0,9.734745302E0
1.619669308E1,-4.475692749E-2,-9.782906342E0,1.954036560E0,9.976247719E0
1.620665408E1,-7.716453552E-1,-9.827663269E0,2.486479340E0,1.016666029E1
1.621661508E1,-1.434616699E0,-1.077728851E1,3.100053406E0,1.130568016E1
1.622657508E1,-1.838476868E0,-1.170296356E1,3.503314819E0,1.235364594E1
1.623653608E1,-2.130070496E0,-1.147139511E1,3.217708740E0,1.210304737E1
1.624649608E1,-2.073488159E0,-1.081381256E1,2.573298798E0,1.130750910E1
1.625645708E1,-2.087409210E0,-1.026235931E1,1.646426239E0,1.060113273E1
1.626641708E1,-2.625689850E0,-1.036803955E1,-2.032772827E-1,1.069728063E1
1.627637808E1,-2.588716736E0,-1.053284683E1,-2.806064758E0,1.120340645E1
1.628633808E1,-1.849254456E0,-1.022448807E1,-3.765868835E0,1.105177209E1
1.629629908E1,-8.747808838E-1,-8.757239227E0,-2.345921631E0,9.108118839E0
1.630626008E1,-1.606159973E-1,-7.212301941E0,-5.269042969E-1,7.233306638E0
1.631622008E1,4.549040222E-1,-7.185657349E0,6.891668701E-1,7.232949618E0
1.632618108E1,9.044192505E-1,-7.468868408E0,1.334025879E0,7.640784942E0
1.633614108E1,5.366340637E-1,-7.766599274E0,1.535207520E0,7.935042692E0
1.634610208E1,-8.562194824E-2,-8.112529907E0,1.538500671E0,8.257569675E0
1.635606208E1,-5.306465149E-1,-8.512647858E0,1.363215179E0,8.637425247E0
1.636602308E1,-1.022972717E0,-8.912017365E0,7.964936829E-1,9.005827495E0
1.637598308E1,-1.472038879E0,-9.297316132E0,-3.378474426E-1,9.419189276E0
1.638594408E1,-1.803150330E0,-9.793983307E0,-1.409768372E0,1.005787786E1
1.639590508E1,-1.500479736E0,-1.014650024E1,-1.949545898E0,1.044048063E1
1.640586508E1,-1.172661438E0,-1.016610947E1,-1.730700989E0,1.037883628E1
1.641582608E1,-1.165925446E0,-1.016221756E1,-1.038390656E0,1.028145432E1
1.642578608E1,-1.397044830E0,-1.061816940E1,-6.659651184E-1,1.073036650E1
1.643574708E1,-1.279090118E0,-1.028526169E1,-5.763015747E-1,1.038050110E1
1.644570708E1,-1.158141632E0,-1.040950333E1,-2.755769348E-1,1.047735626E1
1.645566808E1,-3.588038635E-1,-1.032477951E1,-1.901046753E-2,1.033102965E1
1.646562908E1,1.096619568E0,-1.062445633E1,4.026626587E-2,1.068097693E1
1.647558908E1,1.858834534E0,-1.053075119E1,8.869056702E-1,1.073026505E1
1.648555008E1,2.557132416E0,-1.055170761E1,1.999392242E0,1.103970240E1
1.649551008E1,2.425855408E0,-1.093281509E1,2.408341827E0,1.145475145E1
1.650547108E1,1.553619232E0,-1.092787537E1,2.032922516E0,1.122341154E1
1.651543108E1,1.611249390E0,-1.100601288E1,1.466500397E0,1.121958410E1
1.652539208E1,2.287093964E0,-1.112711105E1,1.135987701E0,1.141638591E1
1.653535208E1,2.751278687E0,-1.078911392E1,1.161285095E0,1.119477989E1
